ACC_X 0, ACC_Y 0, ACC_Z 0, ACC_X 1, ACC_Y 1, ACC_Z 1, ACC_X 2, ACC_Y 2, ACC_Z 2, Time[ms]
0.000000, 0.000000, 0.000000, -0.387707, 0.783227, -0.553239, -0.730491, 0.622577, -0.341319,  --- 0.000000
0.000000, 0.000000, 0.000000, -0.387707, 0.783227, -0.553239, -0.730491, 0.622577, -0.341319,  --- 1.001068
0.000000, 0.000000, 0.000000, -0.373546, 0.778832, -0.541032, -0.731956, 0.619648, -0.342784,  --- 2.002299
0.000000, 0.000000, 0.000000, -0.373546, 0.778832, -0.541032, -0.731956, 0.619648, -0.342784,  --- 3.003188
0.000000, 0.000000, 0.000000, -0.385754, 0.771996, -0.544450, -0.738304, 0.625019, -0.344249,  --- 4.003966
0.000000, 0.000000, 0.000000, -0.385754, 0.771996, -0.544450, -0.738304, 0.625019, -0.344249,  --- 5.004756
0.000000, 0.000000, 0.000000, -0.376476, 0.782250, -0.544938, -0.727073, 0.621112, -0.336924,  --- 6.018721
0.000000, 0.000000, 0.000000, -0.376476, 0.782250, -0.544938, -0.727073, 0.621112, -0.336924,  --- 7.019066
0.000000, 0.000000, 0.000000, -0.376476, 0.771019, -0.538590, -0.728538, 0.618671, -0.342295,  --- 8.019257
0.000000, 0.000000, 0.000000, -0.376476, 0.771019, -0.538590, -0.728538, 0.618671, -0.342295,  --- 9.019576
0.000000, 0.000000, 0.000000, -0.376964, 0.761742, -0.537614, -0.729026, 0.617694, -0.344737,  --- 10.019868
0.000000, 0.000000, 0.000000, -0.376964, 0.761742, -0.537614, -0.729026, 0.617694, -0.344737,  --- 11.020170
0.000000, 0.000000, 0.000000, -0.373058, 0.764672, -0.535661, -0.734885, 0.627460, -0.330088,  --- 12.020559
0.000000, 0.000000, 0.000000, -0.373058, 0.764672, -0.535661, -0.734885, 0.627460, -0.330088,  --- 13.020836
0.000000, 0.000000, 0.000000, -0.382336, 0.767601, -0.534196, -0.730002, 0.625019, -0.352061,  --- 14.021071
0.000000, 0.000000, 0.000000, -0.382336, 0.767601, -0.534196, -0.730002, 0.625019, -0.352061,  --- 15.021344
0.000000, 0.000000, 0.000000, -0.376476, 0.767601, -0.535172, -0.730002, 0.620136, -0.331065,  --- 16.021683
0.000000, 0.000000, 0.000000, -0.376476, 0.767601, -0.535172, -0.730002, 0.620136, -0.331065,  --- 17.022144
0.000000, 0.000000, 0.000000, -0.376476, 0.769554, -0.538590, -0.732932, 0.624531, -0.324229,  --- 18.022451
0.000000, 0.000000, 0.000000, -0.376476, 0.769554, -0.538590, -0.732932, 0.624531, -0.324229,  --- 19.022730
0.000000, 0.000000, 0.000000, -0.374523, 0.766136, -0.524430, -0.731956, 0.625019, -0.325693,  --- 20.023026
0.000000, 0.000000, 0.000000, -0.374523, 0.766136, -0.524430, -0.731956, 0.625019, -0.325693,  --- 21.023912
0.000000, 0.000000, 0.000000, -0.367687, 0.768578, -0.541520, -0.733421, 0.630878, -0.345714,  --- 22.024279
0.000000, 0.000000, 0.000000, -0.367687, 0.768578, -0.541520, -0.733421, 0.630878, -0.345714,  --- 23.024508
0.000000, 0.000000, 0.000000, -0.379406, 0.773949, -0.540544, -0.730002, 0.621601, -0.327158,  --- 24.024754
0.000000, 0.000000, 0.000000, -0.379406, 0.773949, -0.540544, -0.730002, 0.621601, -0.327158,  --- 25.024988
0.000000, 0.000000, 0.000000, -0.373546, 0.781762, -0.536637, -0.730491, 0.618671, -0.332041,  --- 26.025291
0.000000, 0.000000, 0.000000, -0.373546, 0.781762, -0.536637, -0.730491, 0.618671, -0.332041,  --- 27.025509
0.000000, 0.000000, 0.000000, -0.381359, 0.785668, -0.530778, -0.728538, 0.622577, -0.340831,  --- 28.025747
0.000000, 0.000000, 0.000000, -0.381359, 0.785668, -0.530778, -0.728538, 0.622577, -0.340831,  --- 29.026052
0.000000, 0.000000, 0.000000, -0.368663, 0.785180, -0.522965, -0.730491, 0.623554, -0.345714,  --- 30.050070
0.000000, 0.000000, 0.000000, -0.368663, 0.785180, -0.522965, -0.730491, 0.623554, -0.345714,  --- 31.050589
0.000000, 0.000000, 0.000000, -0.374523, 0.774437, -0.532243, -0.731467, 0.616718, -0.329600,  --- 32.050842
0.000000, 0.000000, 0.000000, -0.374523, 0.774437, -0.532243, -0.731467, 0.616718, -0.329600,  --- 33.051075
0.000000, 0.000000, 0.000000, -0.375500, 0.783227, -0.541032, -0.722190, 0.625995, -0.336436,  --- 34.051365
0.000000, 0.000000, 0.000000, -0.375500, 0.783227, -0.541032, -0.722190, 0.625995, -0.336436,  --- 35.054077
0.000000, 0.000000, 0.000000, -0.377453, 0.776879, -0.549333, -0.734397, 0.616230, -0.342784,  --- 36.054466
0.000000, 0.000000, 0.000000, -0.377453, 0.776879, -0.549333, -0.734397, 0.616230, -0.342784,  --- 37.054665
0.000000, 0.000000, 0.000000, -0.384289, 0.773461, -0.544938, -0.723166, 0.620624, -0.353038,  --- 38.054893
0.000000, 0.000000, 0.000000, -0.384289, 0.773461, -0.544938, -0.723166, 0.620624, -0.353038,  --- 39.055111
0.000000, 0.000000, 0.000000, -0.377941, 0.771508, -0.547380, -0.734885, 0.614276, -0.345714,  --- 40.055378
0.000000, 0.000000, 0.000000, -0.377941, 0.771508, -0.547380, -0.734885, 0.614276, -0.345714,  --- 41.055565
0.000000, 0.000000, 0.000000, -0.372570, 0.754906, -0.536637, -0.728049, 0.618671, -0.337413,  --- 42.055820
0.000000, 0.000000, 0.000000, -0.372570, 0.754906, -0.536637, -0.728049, 0.618671, -0.337413,  --- 43.055996
0.000000, 0.000000, 0.000000, -0.378429, 0.765648, -0.540055, -0.737815, 0.624042, -0.346202,  --- 44.056190
0.000000, 0.000000, 0.000000, -0.378429, 0.765648, -0.540055, -0.737815, 0.624042, -0.346202,  --- 45.056473
0.000000, 0.000000, 0.000000, -0.375011, 0.774437, -0.550310, -0.738304, 0.619159, -0.342295,  --- 46.056805
0.000000, 0.000000, 0.000000, -0.375011, 0.774437, -0.550310, -0.738304, 0.619159, -0.342295,  --- 47.057091
0.000000, 0.000000, 0.000000, -0.385266, 0.761253, -0.553239, -0.732932, 0.619648, -0.331553,  --- 48.057369
0.000000, 0.000000, 0.000000, -0.385266, 0.761253, -0.553239, -0.732932, 0.619648, -0.331553,  --- 49.057598
0.000000, 0.000000, 0.000000, -0.375011, 0.767113, -0.535172, -0.726096, 0.623066, -0.338389,  --- 50.057858
0.000000, 0.000000, 0.000000, -0.375011, 0.767113, -0.535172, -0.726096, 0.623066, -0.338389,  --- 51.074928
0.000000, 0.000000, 0.000000, -0.378429, 0.775414, -0.531754, -0.730002, 0.629902, -0.335948,  --- 52.075241
0.000000, 0.000000, 0.000000, -0.378429, 0.775414, -0.531754, -0.730002, 0.629902, -0.335948,  --- 53.075619
0.000000, 0.000000, 0.000000, -0.385754, 0.773949, -0.538590, -0.732444, 0.613300, -0.332530,  --- 54.075886
0.000000, 0.000000, 0.000000, -0.385754, 0.773949, -0.538590, -0.732444, 0.613300, -0.332530,  --- 55.076160
0.000000, 0.000000, 0.000000, -0.389172, 0.772484, -0.535172, -0.736350, 0.622577, -0.338389,  --- 56.076469
0.000000, 0.000000, 0.000000, -0.389172, 0.772484, -0.535172, -0.736350, 0.622577, -0.338389,  --- 57.076679
0.000000, 0.000000, 0.000000, -0.381359, 0.780297, -0.550310, -0.733421, 0.622089, -0.347178,  --- 58.076935
0.000000, 0.000000, 0.000000, -0.381359, 0.780297, -0.550310, -0.733421, 0.622089, -0.347178,  --- 59.077168
0.000000, 0.000000, 0.000000, -0.380871, 0.783227, -0.556169, -0.730979, 0.625507, -0.341807,  --- 60.077477
0.000000, 0.000000, 0.000000, -0.380871, 0.783227, -0.556169, -0.730979, 0.625507, -0.341807,  --- 61.079502
0.000000, 0.000000, 0.000000, -0.381359, 0.773461, -0.531266, -0.727561, 0.623554, -0.334483,  --- 62.079937
0.000000, 0.000000, 0.000000, -0.381359, 0.773461, -0.531266, -0.727561, 0.623554, -0.334483,  --- 63.080280
0.000000, 0.000000, 0.000000, -0.373546, 0.779320, -0.551286, -0.732444, 0.612323, -0.346202,  --- 64.080574
0.000000, 0.000000, 0.000000, -0.373546, 0.779320, -0.551286, -0.732444, 0.612323, -0.346202,  --- 65.080826
0.000000, 0.000000, 0.000000, -0.380871, 0.781762, -0.535172, -0.731467, 0.630390, -0.345714,  --- 66.095634
0.000000, 0.000000, 0.000000, -0.380871, 0.781762, -0.535172, -0.731467, 0.630390, -0.345714,  --- 67.096214
0.000000, 0.000000, 0.000000, -0.383801, 0.770043, -0.546892, -0.728049, 0.629413, -0.341319,  --- 68.118050
0.000000, 0.000000, 0.000000, -0.383801, 0.770043, -0.546892, -0.728049, 0.629413, -0.341319,  --- 69.118439
0.000000, 0.000000, 0.000000, -0.370617, 0.766136, -0.537614, -0.726096, 0.616718, -0.345714,  --- 70.120705
0.000000, 0.000000, 0.000000, -0.370617, 0.766136, -0.537614, -0.726096, 0.616718, -0.345714,  --- 71.121140
0.000000, 0.000000, 0.000000, -0.374523, 0.771019, -0.552751, -0.727073, 0.627460, -0.349132,  --- 72.121399
0.000000, 0.000000, 0.000000, -0.374523, 0.771019, -0.552751, -0.727073, 0.627460, -0.349132,  --- 73.121643
0.000000, 0.000000, 0.000000, -0.379894, 0.766136, -0.528336, -0.719748, 0.626972, -0.342295,  --- 74.121834
0.000000, 0.000000, 0.000000, -0.379894, 0.766136, -0.528336, -0.719748, 0.626972, -0.342295,  --- 75.139130
0.000000, 0.000000, 0.000000, -0.374035, 0.761253, -0.532243, -0.730002, 0.618183, -0.334483,  --- 76.139526
0.000000, 0.000000, 0.000000, -0.374035, 0.761253, -0.532243, -0.730002, 0.618183, -0.334483,  --- 77.144035
0.000000, 0.000000, 0.000000, -0.370617, 0.761253, -0.542009, -0.730491, 0.635273, -0.328623,  --- 78.144485
0.000000, 0.000000, 0.000000, -0.370617, 0.761253, -0.542009, -0.730491, 0.635273, -0.328623,  --- 79.154984
0.000000, 0.000000, 0.000000, -0.382336, 0.775414, -0.526383, -0.725120, 0.628437, -0.324717,  --- 80.155563
0.000000, 0.000000, 0.000000, -0.382336, 0.775414, -0.526383, -0.725120, 0.628437, -0.324717,  --- 81.155930
0.000000, 0.000000, 0.000000, -0.370128, 0.771996, -0.530778, -0.733909, 0.622089, -0.336436,  --- 82.156166
0.000000, 0.000000, 0.000000, -0.370128, 0.771996, -0.530778, -0.733909, 0.622089, -0.336436,  --- 83.161339
0.000000, 0.000000, 0.000000, -0.380383, 0.766625, -0.535661, -0.729514, 0.617206, -0.333506,  --- 84.169762
0.000000, 0.000000, 0.000000, -0.380383, 0.766625, -0.535661, -0.729514, 0.617206, -0.333506,  --- 85.170258
0.000000, 0.000000, 0.000000, -0.375011, 0.778832, -0.533219, -0.730979, 0.611347, -0.339366,  --- 86.170700
0.000000, 0.000000, 0.000000, -0.375011, 0.778832, -0.533219, -0.730979, 0.611347, -0.339366,  --- 87.170883
0.000000, 0.000000, 0.000000, -0.375500, 0.783227, -0.549333, -0.735862, 0.625507, -0.338389,  --- 88.171181
0.000000, 0.000000, 0.000000, -0.375500, 0.783227, -0.549333, -0.735862, 0.625507, -0.338389,  --- 89.172714
0.000000, 0.000000, 0.000000, -0.373058, 0.781274, -0.546892, -0.729026, 0.629413, -0.340831,  --- 90.173042
0.000000, 0.000000, 0.000000, -0.373058, 0.781274, -0.546892, -0.729026, 0.629413, -0.340831,  --- 91.173241
0.000000, 0.000000, 0.000000, -0.374523, 0.778832, -0.544938, -0.735374, 0.628437, -0.333018,  --- 92.173447
0.000000, 0.000000, 0.000000, -0.374523, 0.778832, -0.544938, -0.735374, 0.628437, -0.333018,  --- 93.173767
0.000000, 0.000000, 0.000000, -0.373058, 0.776391, -0.525895, -0.735862, 0.625019, -0.328623,  --- 94.174072
0.000000, 0.000000, 0.000000, -0.373058, 0.776391, -0.525895, -0.735862, 0.625019, -0.328623,  --- 95.174286
0.000000, 0.000000, 0.000000, -0.382336, 0.779809, -0.546892, -0.738792, 0.626972, -0.344249,  --- 96.191223
0.000000, 0.000000, 0.000000, -0.382336, 0.779809, -0.546892, -0.738792, 0.626972, -0.344249,  --- 97.191704
0.000000, 0.000000, 0.000000, -0.382336, 0.773949, -0.556169, -0.736839, 0.620136, -0.352061,  --- 98.192001
0.000000, 0.000000, 0.000000, -0.382336, 0.773949, -0.556169, -0.736839, 0.620136, -0.352061,  --- 99.192207
0.000000, 0.000000, 0.000000, -0.376476, 0.772484, -0.552751, -0.737327, 0.624042, -0.340831,  --- 100.197159
0.000000, 0.000000, 0.000000, -0.376476, 0.772484, -0.552751, -0.737327, 0.624042, -0.340831,  --- 101.197556
0.000000, 0.000000, 0.000000, -0.382824, 0.772973, -0.543473, -0.737327, 0.616718, -0.347667,  --- 102.197906
0.000000, 0.000000, 0.000000, -0.382824, 0.772973, -0.543473, -0.737327, 0.616718, -0.347667,  --- 103.198273
0.000000, 0.000000, 0.000000, -0.387707, 0.769066, -0.540544, -0.743675, 0.620624, -0.338389,  --- 104.198952
0.000000, 0.000000, 0.000000, -0.387707, 0.769066, -0.540544, -0.743675, 0.620624, -0.338389,  --- 105.199417
0.000000, 0.000000, 0.000000, -0.382824, 0.765648, -0.541520, -0.737327, 0.619159, -0.333994,  --- 106.199615
0.000000, 0.000000, 0.000000, -0.382824, 0.765648, -0.541520, -0.737327, 0.619159, -0.333994,  --- 107.199821
0.000000, 0.000000, 0.000000, -0.389660, 0.770043, -0.548845, -0.728538, 0.622089, -0.341319,  --- 108.216438
0.000000, 0.000000, 0.000000, -0.389660, 0.770043, -0.548845, -0.728538, 0.622089, -0.341319,  --- 109.216827
0.000000, 0.000000, 0.000000, -0.381847, 0.768578, -0.538590, -0.738792, 0.614276, -0.336436,  --- 110.217033
0.000000, 0.000000, 0.000000, -0.381847, 0.768578, -0.538590, -0.738792, 0.614276, -0.336436,  --- 111.217247
0.000000, 0.000000, 0.000000, -0.383312, 0.773949, -0.530778, -0.731956, 0.616718, -0.332530,  --- 112.217445
0.000000, 0.000000, 0.000000, -0.383312, 0.773949, -0.530778, -0.731956, 0.616718, -0.332530,  --- 113.217819
0.000000, 0.000000, 0.000000, -0.379894, 0.769066, -0.545427, -0.726096, 0.614276, -0.344249,  --- 114.218170
0.000000, 0.000000, 0.000000, -0.379894, 0.769066, -0.545427, -0.726096, 0.614276, -0.344249,  --- 115.218559
0.000000, 0.000000, 0.000000, -0.376964, 0.773949, -0.547868, -0.736839, 0.614276, -0.349620,  --- 116.218826
0.000000, 0.000000, 0.000000, -0.376964, 0.773949, -0.547868, -0.736839, 0.614276, -0.349620,  --- 117.219116
0.000000, 0.000000, 0.000000, -0.376964, 0.773461, -0.540544, -0.741722, 0.614765, -0.333506,  --- 118.219444
0.000000, 0.000000, 0.000000, -0.376964, 0.773461, -0.540544, -0.741722, 0.614765, -0.333506,  --- 119.219688
0.000000, 0.000000, 0.000000, -0.371593, 0.775414, -0.536149, -0.730979, 0.618671, -0.342784,  --- 120.219940
0.000000, 0.000000, 0.000000, -0.371593, 0.775414, -0.536149, -0.730979, 0.618671, -0.342784,  --- 121.220222
0.000000, 0.000000, 0.000000, -0.379406, 0.771508, -0.539079, -0.729514, 0.620136, -0.336436,  --- 122.237061
0.000000, 0.000000, 0.000000, -0.379406, 0.771508, -0.539079, -0.729514, 0.620136, -0.336436,  --- 123.237381
0.000000, 0.000000, 0.000000, -0.379406, 0.770043, -0.537126, -0.733909, 0.618671, -0.341807,  --- 124.237572
0.000000, 0.000000, 0.000000, -0.379406, 0.770043, -0.537126, -0.733909, 0.618671, -0.341807,  --- 125.237740
0.000000, 0.000000, 0.000000, -0.384289, 0.778344, -0.541032, -0.728538, 0.619159, -0.343760,  --- 126.237930
0.000000, 0.000000, 0.000000, -0.384289, 0.778344, -0.541032, -0.728538, 0.619159, -0.343760,  --- 127.238167
0.000000, 0.000000, 0.000000, -0.375500, 0.779320, -0.540544, -0.736350, 0.629902, -0.333506,  --- 128.238541
0.000000, 0.000000, 0.000000, -0.375500, 0.779320, -0.540544, -0.736350, 0.629902, -0.333506,  --- 129.238937
0.000000, 0.000000, 0.000000, -0.378429, 0.774926, -0.540544, -0.731956, 0.619648, -0.331553,  --- 130.239212
0.000000, 0.000000, 0.000000, -0.378429, 0.774926, -0.540544, -0.731956, 0.619648, -0.331553,  --- 131.239471
0.000000, 0.000000, 0.000000, -0.374035, 0.767113, -0.533219, -0.730491, 0.620624, -0.338389,  --- 132.239746
0.000000, 0.000000, 0.000000, -0.374035, 0.767113, -0.533219, -0.730491, 0.620624, -0.338389,  --- 133.240204
0.000000, 0.000000, 0.000000, -0.380383, 0.769066, -0.537614, -0.732444, 0.632343, -0.326182,  --- 134.240448
0.000000, 0.000000, 0.000000, -0.380383, 0.769066, -0.537614, -0.732444, 0.632343, -0.326182,  --- 135.240845
0.000000, 0.000000, 0.000000, -0.375988, 0.771996, -0.541520, -0.732932, 0.627949, -0.340342,  --- 136.241089
0.000000, 0.000000, 0.000000, -0.375988, 0.771996, -0.541520, -0.732932, 0.627949, -0.340342,  --- 137.241333
0.000000, 0.000000, 0.000000, -0.377941, 0.773461, -0.544450, -0.720725, 0.630390, -0.347178,  --- 138.241638
0.000000, 0.000000, 0.000000, -0.377941, 0.773461, -0.544450, -0.720725, 0.630390, -0.347178,  --- 139.241852
0.000000, 0.000000, 0.000000, -0.376476, 0.764672, -0.542497, -0.730002, 0.625019, -0.334483,  --- 140.242035
0.000000, 0.000000, 0.000000, -0.376476, 0.764672, -0.542497, -0.730002, 0.625019, -0.334483,  --- 141.242249
0.000000, 0.000000, 0.000000, -0.368175, 0.778832, -0.551286, -0.725120, 0.617694, -0.333994,  --- 142.247711
0.000000, 0.000000, 0.000000, -0.368175, 0.778832, -0.551286, -0.725120, 0.617694, -0.333994,  --- 143.248245
0.000000, 0.000000, 0.000000, -0.373546, 0.765648, -0.536637, -0.728538, 0.621601, -0.336436,  --- 144.248505
0.000000, 0.000000, 0.000000, -0.373546, 0.765648, -0.536637, -0.728538, 0.621601, -0.336436,  --- 145.248840
0.000000, 0.000000, 0.000000, -0.368175, 0.769066, -0.535661, -0.739280, 0.622089, -0.335948,  --- 146.249130
0.000000, 0.000000, 0.000000, -0.368175, 0.769066, -0.535661, -0.739280, 0.622089, -0.335948,  --- 147.249451
0.000000, 0.000000, 0.000000, -0.368175, 0.769066, -0.535661, -0.739280, 0.622089, -0.335948,  --- 148.249802
0.000000, 0.000000, 0.000000, -0.381847, 0.762718, -0.542009, -0.728049, 0.620136, -0.336436,  --- 149.250259
0.000000, 0.000000, 0.000000, -0.383801, 0.770043, -0.540544, -0.730002, 0.623066, -0.344737,  --- 150.269363
0.000000, 0.000000, 0.000000, -0.383801, 0.770043, -0.540544, -0.730002, 0.623066, -0.344737,  --- 151.269852
0.000000, 0.000000, 0.000000, -0.371105, 0.770531, -0.535661, -0.731467, 0.631855, -0.337901,  --- 152.270187
0.000000, 0.000000, 0.000000, -0.371105, 0.770531, -0.535661, -0.731467, 0.631855, -0.337901,  --- 153.270477
0.000000, 0.000000, 0.000000, -0.379406, 0.772484, -0.548845, -0.724631, 0.623066, -0.345225,  --- 154.270752
0.000000, 0.000000, 0.000000, -0.379406, 0.772484, -0.548845, -0.724631, 0.623066, -0.345225,  --- 155.270966
0.000000, 0.000000, 0.000000, -0.375500, 0.771996, -0.546403, -0.730491, 0.625507, -0.337413,  --- 156.271194
0.000000, 0.000000, 0.000000, -0.375500, 0.771996, -0.546403, -0.730491, 0.625507, -0.337413,  --- 157.271393
0.000000, 0.000000, 0.000000, -0.376476, 0.770043, -0.540055, -0.732932, 0.628437, -0.331065,  --- 158.271667
0.000000, 0.000000, 0.000000, -0.376476, 0.770043, -0.540055, -0.732932, 0.628437, -0.331065,  --- 159.271896
0.000000, 0.000000, 0.000000, -0.382336, 0.766625, -0.531754, -0.728049, 0.625019, -0.327647,  --- 160.272171
0.000000, 0.000000, 0.000000, -0.382336, 0.766625, -0.531754, -0.728049, 0.625019, -0.327647,  --- 161.272675
0.000000, 0.000000, 0.000000, -0.382336, 0.766625, -0.531754, -0.728049, 0.625019, -0.327647,  --- 162.272903
0.000000, 0.000000, 0.000000, -0.373058, 0.775414, -0.541520, -0.737815, 0.623554, -0.338389,  --- 163.273193
0.000000, 0.000000, 0.000000, -0.373058, 0.775414, -0.541520, -0.737815, 0.623554, -0.338389,  --- 164.273422
0.000000, 0.000000, 0.000000, -0.385266, 0.768090, -0.539567, -0.732932, 0.624531, -0.326182,  --- 165.273712
0.000000, 0.000000, 0.000000, -0.385266, 0.768090, -0.539567, -0.732932, 0.624531, -0.326182,  --- 166.274017
0.000000, 0.000000, 0.000000, -0.370617, 0.775414, -0.545427, -0.737815, 0.623066, -0.339366,  --- 167.278214
0.000000, 0.000000, 0.000000, -0.370617, 0.775414, -0.545427, -0.737815, 0.623066, -0.339366,  --- 168.278534
0.000000, 0.000000, 0.000000, -0.374035, 0.774437, -0.544450, -0.726096, 0.625019, -0.346202,  --- 169.278870
0.000000, 0.000000, 0.000000, -0.374035, 0.774437, -0.544450, -0.726096, 0.625019, -0.346202,  --- 170.281921
0.000000, 0.000000, 0.000000, -0.380383, 0.764672, -0.548845, -0.730002, 0.619159, -0.336924,  --- 171.282364
0.000000, 0.000000, 0.000000, -0.380383, 0.764672, -0.548845, -0.730002, 0.619159, -0.336924,  --- 172.282654
0.000000, 0.000000, 0.000000, -0.384777, 0.773461, -0.537126, -0.733909, 0.617206, -0.348643,  --- 173.282959
0.000000, 0.000000, 0.000000, -0.384777, 0.773461, -0.537126, -0.733909, 0.617206, -0.348643,  --- 174.283249
0.000000, 0.000000, 0.000000, -0.388684, 0.774926, -0.539079, -0.736839, 0.625507, -0.338389,  --- 175.283508
0.000000, 0.000000, 0.000000, -0.388684, 0.774926, -0.539079, -0.736839, 0.625507, -0.338389,  --- 176.283859
0.000000, 0.000000, 0.000000, -0.375500, 0.769066, -0.539567, -0.739280, 0.617694, -0.340831,  --- 177.284134
0.000000, 0.000000, 0.000000, -0.375500, 0.769066, -0.539567, -0.739280, 0.617694, -0.340831,  --- 178.284348
0.000000, 0.000000, 0.000000, -0.380871, 0.764672, -0.551286, -0.734885, 0.624531, -0.341319,  --- 179.284592
0.000000, 0.000000, 0.000000, -0.380871, 0.764672, -0.551286, -0.734885, 0.624531, -0.341319,  --- 180.284821
0.000000, 0.000000, 0.000000, -0.386242, 0.775414, -0.544938, -0.733909, 0.617206, -0.344249,  --- 181.285156
0.000000, 0.000000, 0.000000, -0.386242, 0.775414, -0.544938, -0.733909, 0.617206, -0.344249,  --- 182.287079
0.000000, 0.000000, 0.000000, -0.375988, 0.769554, -0.539567, -0.732444, 0.615253, -0.334483,  --- 183.304977
0.000000, 0.000000, 0.000000, -0.375988, 0.769554, -0.539567, -0.732444, 0.615253, -0.334483,  --- 184.318817
0.000000, 0.000000, 0.000000, -0.373546, 0.768578, -0.553239, -0.729026, 0.617206, -0.343760,  --- 185.319138
0.000000, 0.000000, 0.000000, -0.373546, 0.768578, -0.553239, -0.729026, 0.617206, -0.343760,  --- 186.319351
0.000000, 0.000000, 0.000000, -0.380383, 0.764183, -0.542009, -0.739280, 0.618671, -0.331553,  --- 187.319672
0.000000, 0.000000, 0.000000, -0.380383, 0.764183, -0.542009, -0.739280, 0.618671, -0.331553,  --- 188.320007
0.000000, 0.000000, 0.000000, -0.379894, 0.769554, -0.541032, -0.734885, 0.618671, -0.339366,  --- 189.320251
0.000000, 0.000000, 0.000000, -0.379894, 0.769554, -0.541032, -0.734885, 0.618671, -0.339366,  --- 190.320572
0.000000, 0.000000, 0.000000, -0.382336, 0.769066, -0.541520, -0.732444, 0.629413, -0.341319,  --- 191.320816
0.000000, 0.000000, 0.000000, -0.382336, 0.769066, -0.541520, -0.732444, 0.629413, -0.341319,  --- 192.321045
0.000000, 0.000000, 0.000000, -0.373546, 0.776391, -0.536149, -0.731467, 0.617694, -0.334483,  --- 193.321365
0.000000, 0.000000, 0.000000, -0.373546, 0.776391, -0.536149, -0.731467, 0.617694, -0.334483,  --- 194.321594
0.000000, 0.000000, 0.000000, -0.374523, 0.776391, -0.545915, -0.734397, 0.621112, -0.341319,  --- 195.321777
0.000000, 0.000000, 0.000000, -0.374523, 0.776391, -0.545915, -0.734397, 0.621112, -0.341319,  --- 196.342697
0.000000, 0.000000, 0.000000, -0.382824, 0.776879, -0.552751, -0.728538, 0.610370, -0.347178,  --- 197.343231
0.000000, 0.000000, 0.000000, -0.382824, 0.776879, -0.552751, -0.728538, 0.610370, -0.347178,  --- 198.348755
0.000000, 0.000000, 0.000000, -0.378429, 0.777367, -0.544938, -0.729026, 0.632343, -0.347178,  --- 199.349106
0.000000, 0.000000, 0.000000, -0.378429, 0.777367, -0.544938, -0.729026, 0.632343, -0.347178,  --- 200.349380
0.000000, 0.000000, 0.000000, -0.368663, 0.783227, -0.535661, -0.730491, 0.628437, -0.334971,  --- 201.349762
0.000000, 0.000000, 0.000000, -0.368663, 0.783227, -0.535661, -0.730491, 0.628437, -0.334971,  --- 202.350052
0.000000, 0.000000, 0.000000, -0.372570, 0.771508, -0.539567, -0.728049, 0.635761, -0.351573,  --- 203.359772
0.000000, 0.000000, 0.000000, -0.372570, 0.771508, -0.539567, -0.728049, 0.635761, -0.351573,  --- 204.360092
0.000000, 0.000000, 0.000000, -0.376964, 0.776879, -0.541032, -0.729026, 0.622089, -0.335459,  --- 205.360306
0.000000, 0.000000, 0.000000, -0.376964, 0.776879, -0.541032, -0.729026, 0.622089, -0.335459,  --- 206.360550
0.000000, 0.000000, 0.000000, -0.367687, 0.772973, -0.539567, -0.730979, 0.626484, -0.349620,  --- 207.360733
0.000000, 0.000000, 0.000000, -0.367687, 0.772973, -0.539567, -0.730979, 0.626484, -0.349620,  --- 208.360977
0.000000, 0.000000, 0.000000, -0.376476, 0.771508, -0.531266, -0.731956, 0.625995, -0.348643,  --- 209.361282
0.000000, 0.000000, 0.000000, -0.376476, 0.771508, -0.531266, -0.731956, 0.625995, -0.348643,  --- 210.361557
0.000000, 0.000000, 0.000000, -0.375500, 0.765648, -0.534684, -0.729514, 0.619648, -0.340831,  --- 211.361801
0.000000, 0.000000, 0.000000, -0.375500, 0.765648, -0.534684, -0.729514, 0.619648, -0.340831,  --- 212.381302
0.000000, 0.000000, 0.000000, -0.375988, 0.772973, -0.532243, -0.728049, 0.628925, -0.336436,  --- 213.381775
0.000000, 0.000000, 0.000000, -0.375988, 0.772973, -0.532243, -0.728049, 0.628925, -0.336436,  --- 214.381958
0.000000, 0.000000, 0.000000, -0.380871, 0.781762, -0.543473, -0.724143, 0.620136, -0.332041,  --- 215.382172
0.000000, 0.000000, 0.000000, -0.380871, 0.781762, -0.543473, -0.724143, 0.620136, -0.332041,  --- 216.382553
0.000000, 0.000000, 0.000000, -0.375988, 0.771996, -0.546403, -0.730491, 0.619159, -0.340342,  --- 217.382980
0.000000, 0.000000, 0.000000, -0.375988, 0.771996, -0.546403, -0.730491, 0.619159, -0.340342,  --- 218.398148
0.000000, 0.000000, 0.000000, -0.377453, 0.777367, -0.540055, -0.737327, 0.614276, -0.324229,  --- 219.398438
0.000000, 0.000000, 0.000000, -0.377453, 0.777367, -0.540055, -0.737327, 0.614276, -0.324229,  --- 220.405838
0.000000, 0.000000, 0.000000, -0.379894, 0.759789, -0.533219, -0.729514, 0.624531, -0.351573,  --- 221.418869
0.000000, 0.000000, 0.000000, -0.379894, 0.759789, -0.533219, -0.729514, 0.624531, -0.351573,  --- 222.419281
0.000000, 0.000000, 0.000000, -0.376964, 0.766136, -0.535172, -0.734397, 0.617206, -0.349620,  --- 223.419586
0.000000, 0.000000, 0.000000, -0.376964, 0.766136, -0.535172, -0.734397, 0.617206, -0.349620,  --- 224.419830
0.000000, 0.000000, 0.000000, -0.380383, 0.773461, -0.540544, -0.727073, 0.621601, -0.333018,  --- 225.420044
0.000000, 0.000000, 0.000000, -0.380383, 0.773461, -0.540544, -0.727073, 0.621601, -0.333018,  --- 226.420303
0.000000, 0.000000, 0.000000, -0.379406, 0.766136, -0.541032, -0.736350, 0.618183, -0.343272,  --- 227.420563
0.000000, 0.000000, 0.000000, -0.379406, 0.766136, -0.541032, -0.736350, 0.618183, -0.343272,  --- 228.420807
0.000000, 0.000000, 0.000000, -0.375011, 0.761742, -0.548356, -0.741722, 0.626972, -0.352061,  --- 229.421005
0.000000, 0.000000, 0.000000, -0.375011, 0.761742, -0.548356, -0.741722, 0.626972, -0.352061,  --- 230.421204
0.000000, 0.000000, 0.000000, -0.375500, 0.774926, -0.545915, -0.730979, 0.621601, -0.335948,  --- 231.421448
0.000000, 0.000000, 0.000000, -0.375500, 0.774926, -0.545915, -0.730979, 0.621601, -0.335948,  --- 232.421738
0.000000, 0.000000, 0.000000, -0.375988, 0.779809, -0.534196, -0.732932, 0.617694, -0.337901,  --- 233.434494
0.000000, 0.000000, 0.000000, -0.375988, 0.779809, -0.534196, -0.732932, 0.617694, -0.337901,  --- 234.439911
0.000000, 0.000000, 0.000000, -0.382824, 0.778832, -0.542985, -0.735862, 0.625019, -0.343272,  --- 235.440247
0.000000, 0.000000, 0.000000, -0.382824, 0.778832, -0.542985, -0.735862, 0.625019, -0.343272,  --- 236.440475
0.000000, 0.000000, 0.000000, -0.376476, 0.772484, -0.531754, -0.727561, 0.619159, -0.346690,  --- 237.440720
0.000000, 0.000000, 0.000000, -0.376476, 0.772484, -0.531754, -0.727561, 0.619159, -0.346690,  --- 238.440948
0.000000, 0.000000, 0.000000, -0.368663, 0.771508, -0.547380, -0.726584, 0.625507, -0.347178,  --- 239.441101
0.000000, 0.000000, 0.000000, -0.368663, 0.771508, -0.547380, -0.726584, 0.625507, -0.347178,  --- 240.441299
0.000000, 0.000000, 0.000000, -0.377941, 0.775902, -0.557634, -0.724143, 0.618671, -0.332530,  --- 241.441925
0.000000, 0.000000, 0.000000, -0.377941, 0.775902, -0.557634, -0.724143, 0.618671, -0.332530,  --- 242.442307
0.000000, 0.000000, 0.000000, -0.379406, 0.771019, -0.545427, -0.732444, 0.616718, -0.325693,  --- 243.442535
0.000000, 0.000000, 0.000000, -0.379406, 0.771019, -0.545427, -0.732444, 0.616718, -0.325693,  --- 244.442795
0.000000, 0.000000, 0.000000, -0.379894, 0.773949, -0.522965, -0.731956, 0.627949, -0.328623,  --- 245.443527
0.000000, 0.000000, 0.000000, -0.379894, 0.773949, -0.522965, -0.731956, 0.627949, -0.328623,  --- 246.443787
0.000000, 0.000000, 0.000000, -0.386730, 0.783227, -0.546403, -0.726584, 0.629413, -0.344737,  --- 247.443954
0.000000, 0.000000, 0.000000, -0.386730, 0.783227, -0.546403, -0.726584, 0.629413, -0.344737,  --- 248.444229
0.000000, 0.000000, 0.000000, -0.372570, 0.767601, -0.521988, -0.730491, 0.622577, -0.327647,  --- 249.444489
0.000000, 0.000000, 0.000000, -0.372570, 0.767601, -0.521988, -0.730491, 0.622577, -0.327647,  --- 250.444794
0.000000, 0.000000, 0.000000, -0.378429, 0.761742, -0.537126, -0.731467, 0.628437, -0.345714,  --- 251.445023
0.000000, 0.000000, 0.000000, -0.378429, 0.761742, -0.537126, -0.731467, 0.628437, -0.345714,  --- 252.445312
0.000000, 0.000000, 0.000000, -0.373546, 0.772973, -0.547380, -0.726584, 0.630878, -0.347667,  --- 253.445541
0.000000, 0.000000, 0.000000, -0.373546, 0.772973, -0.547380, -0.726584, 0.630878, -0.347667,  --- 254.445755
0.000000, 0.000000, 0.000000, -0.374523, 0.771508, -0.550310, -0.733421, 0.624042, -0.333506,  --- 255.447006
0.000000, 0.000000, 0.000000, -0.374523, 0.771508, -0.550310, -0.733421, 0.624042, -0.333506,  --- 256.447296
0.000000, 0.000000, 0.000000, -0.378429, 0.757347, -0.542009, -0.729514, 0.618671, -0.330088,  --- 257.447479
0.000000, 0.000000, 0.000000, -0.378429, 0.757347, -0.542009, -0.729514, 0.618671, -0.330088,  --- 258.447784
0.000000, 0.000000, 0.000000, -0.379894, 0.769554, -0.533219, -0.728538, 0.623066, -0.335948,  --- 259.448090
0.000000, 0.000000, 0.000000, -0.379894, 0.769554, -0.533219, -0.728538, 0.623066, -0.335948,  --- 260.448364
0.000000, 0.000000, 0.000000, -0.377941, 0.767113, -0.526383, -0.732444, 0.624531, -0.329111,  --- 261.448578
0.000000, 0.000000, 0.000000, -0.377941, 0.767113, -0.526383, -0.732444, 0.624531, -0.329111,  --- 262.448761
0.000000, 0.000000, 0.000000, -0.371105, 0.769066, -0.546892, -0.730491, 0.632832, -0.329111,  --- 263.449005
0.000000, 0.000000, 0.000000, -0.371105, 0.769066, -0.546892, -0.730491, 0.632832, -0.329111,  --- 264.449219
0.000000, 0.000000, 0.000000, -0.374035, 0.771508, -0.553239, -0.730979, 0.622577, -0.336436,  --- 265.449493
0.000000, 0.000000, 0.000000, -0.374035, 0.771508, -0.553239, -0.730979, 0.622577, -0.336436,  --- 266.449768
0.000000, 0.000000, 0.000000, -0.373058, 0.772973, -0.540544, -0.735374, 0.613788, -0.334483,  --- 267.450073
0.000000, 0.000000, 0.000000, -0.373058, 0.772973, -0.540544, -0.735374, 0.613788, -0.334483,  --- 268.455444
0.000000, 0.000000, 0.000000, -0.374523, 0.778832, -0.547380, -0.730491, 0.621112, -0.324717,  --- 269.455841
0.000000, 0.000000, 0.000000, -0.374523, 0.778832, -0.547380, -0.730491, 0.621112, -0.324717,  --- 270.456085
0.000000, 0.000000, 0.000000, -0.367687, 0.774926, -0.545427, -0.728049, 0.625995, -0.339366,  --- 271.456329
0.000000, 0.000000, 0.000000, -0.367687, 0.774926, -0.545427, -0.728049, 0.625995, -0.339366,  --- 272.469147
0.000000, 0.000000, 0.000000, -0.373546, 0.773949, -0.541032, -0.737815, 0.625019, -0.324717,  --- 273.469391
0.000000, 0.000000, 0.000000, -0.373546, 0.773949, -0.541032, -0.737815, 0.625019, -0.324717,  --- 274.469604
0.000000, 0.000000, 0.000000, -0.372570, 0.771508, -0.534684, -0.725608, 0.630390, -0.338389,  --- 275.469879
0.000000, 0.000000, 0.000000, -0.372570, 0.771508, -0.534684, -0.725608, 0.630390, -0.338389,  --- 276.493439
0.000000, 0.000000, 0.000000, -0.386242, 0.768578, -0.547868, -0.730979, 0.632832, -0.333018,  --- 277.493774
0.000000, 0.000000, 0.000000, -0.386242, 0.768578, -0.547868, -0.730979, 0.632832, -0.333018,  --- 278.509613
0.000000, 0.000000, 0.000000, -0.384777, 0.766625, -0.537126, -0.734885, 0.625995, -0.340831,  --- 279.509979
0.000000, 0.000000, 0.000000, -0.384777, 0.766625, -0.537126, -0.734885, 0.625995, -0.340831,  --- 280.510284
0.000000, 0.000000, 0.000000, -0.371593, 0.767601, -0.547868, -0.736839, 0.626972, -0.335948,  --- 281.510529
0.000000, 0.000000, 0.000000, -0.371593, 0.767601, -0.547868, -0.736839, 0.626972, -0.335948,  --- 282.520569
0.000000, 0.000000, 0.000000, -0.373546, 0.773949, -0.546892, -0.732444, 0.629902, -0.333994,  --- 283.521027
0.000000, 0.000000, 0.000000, -0.373546, 0.773949, -0.546892, -0.732444, 0.629902, -0.333994,  --- 284.521210
0.000000, 0.000000, 0.000000, -0.376476, 0.764672, -0.550310, -0.729026, 0.627949, -0.332041,  --- 285.521484
0.000000, 0.000000, 0.000000, -0.376476, 0.764672, -0.550310, -0.729026, 0.627949, -0.332041,  --- 286.521729
0.000000, 0.000000, 0.000000, -0.384289, 0.769554, -0.536637, -0.736839, 0.616718, -0.329111,  --- 287.521942
0.000000, 0.000000, 0.000000, -0.384289, 0.769554, -0.536637, -0.736839, 0.616718, -0.329111,  --- 288.530914
0.000000, 0.000000, 0.000000, -0.373546, 0.763207, -0.541520, -0.736839, 0.624531, -0.335948,  --- 289.531219
0.000000, 0.000000, 0.000000, -0.373546, 0.763207, -0.541520, -0.736839, 0.624531, -0.335948,  --- 290.542999
0.000000, 0.000000, 0.000000, -0.365734, 0.769554, -0.544450, -0.728538, 0.618183, -0.343272,  --- 291.547974
0.000000, 0.000000, 0.000000, -0.365734, 0.769554, -0.544450, -0.728538, 0.618183, -0.343272,  --- 292.564423
0.000000, 0.000000, 0.000000, -0.374035, 0.773949, -0.536149, -0.728538, 0.621112, -0.334483,  --- 293.564819
0.000000, 0.000000, 0.000000, -0.374035, 0.773949, -0.536149, -0.728538, 0.621112, -0.334483,  --- 294.565338
0.000000, 0.000000, 0.000000, -0.381847, 0.766136, -0.533707, -0.729514, 0.614765, -0.348155,  --- 295.565552
0.000000, 0.000000, 0.000000, -0.381847, 0.766136, -0.533707, -0.729514, 0.614765, -0.348155,  --- 296.565735
0.000000, 0.000000, 0.000000, -0.376964, 0.772484, -0.542009, -0.730491, 0.620624, -0.334483,  --- 297.566071
0.000000, 0.000000, 0.000000, -0.376964, 0.772484, -0.542009, -0.730491, 0.620624, -0.334483,  --- 298.566284
0.000000, 0.000000, 0.000000, -0.381847, 0.782250, -0.550310, -0.735374, 0.621601, -0.334483,  --- 299.566528
0.000000, 0.000000, 0.000000, -0.381847, 0.782250, -0.550310, -0.735374, 0.621601, -0.334483,  --- 300.585449
0.000000, 0.000000, 0.000000, -0.383801, 0.779320, -0.544938, -0.733909, 0.621601, -0.351573,  --- 301.607513
0.000000, 0.000000, 0.000000, -0.383801, 0.779320, -0.544938, -0.733909, 0.621601, -0.351573,  --- 302.611084
0.000000, 0.000000, 0.000000, -0.384777, 0.777367, -0.538590, -0.738304, 0.621112, -0.343760,  --- 303.611450
0.000000, 0.000000, 0.000000, -0.384777, 0.777367, -0.538590, -0.738304, 0.621112, -0.343760,  --- 304.611664
0.000000, 0.000000, 0.000000, -0.382824, 0.767113, -0.538590, -0.733909, 0.628925, -0.341807,  --- 305.611877
0.000000, 0.000000, 0.000000, -0.382824, 0.767113, -0.538590, -0.733909, 0.628925, -0.341807,  --- 306.626617
0.000000, 0.000000, 0.000000, -0.371105, 0.771508, -0.543473, -0.737815, 0.623066, -0.334483,  --- 307.636932
0.000000, 0.000000, 0.000000, -0.371105, 0.771508, -0.543473, -0.737815, 0.623066, -0.334483,  --- 308.637238
0.000000, 0.000000, 0.000000, -0.380871, 0.770043, -0.547380, -0.733909, 0.611347, -0.358409,  --- 309.637390
0.000000, 0.000000, 0.000000, -0.380871, 0.770043, -0.547380, -0.733909, 0.611347, -0.358409,  --- 310.637573
0.000000, 0.000000, 0.000000, -0.376964, 0.774437, -0.542985, -0.734397, 0.617694, -0.336924,  --- 311.637939
0.000000, 0.000000, 0.000000, -0.376964, 0.774437, -0.542985, -0.734397, 0.617694, -0.336924,  --- 312.641479
0.000000, 0.000000, 0.000000, -0.379406, 0.767601, -0.529801, -0.729026, 0.617206, -0.330576,  --- 313.642303
0.000000, 0.000000, 0.000000, -0.379406, 0.767601, -0.529801, -0.729026, 0.617206, -0.330576,  --- 314.642670
0.000000, 0.000000, 0.000000, -0.386242, 0.765648, -0.533219, -0.737327, 0.619648, -0.335948,  --- 315.642914
0.000000, 0.000000, 0.000000, -0.386242, 0.765648, -0.533219, -0.737327, 0.619648, -0.335948,  --- 316.643219
0.000000, 0.000000, 0.000000, -0.371593, 0.761742, -0.545915, -0.728049, 0.618183, -0.335459,  --- 317.643524
0.000000, 0.000000, 0.000000, -0.371593, 0.761742, -0.545915, -0.728049, 0.618183, -0.335459,  --- 318.643768
0.000000, 0.000000, 0.000000, -0.372082, 0.773461, -0.538590, -0.733909, 0.609882, -0.332041,  --- 319.643951
0.000000, 0.000000, 0.000000, -0.372082, 0.773461, -0.538590, -0.733909, 0.609882, -0.332041,  --- 320.644165
0.000000, 0.000000, 0.000000, -0.378429, 0.771508, -0.544450, -0.734397, 0.617206, -0.345225,  --- 321.644440
0.000000, 0.000000, 0.000000, -0.378429, 0.771508, -0.544450, -0.734397, 0.617206, -0.345225,  --- 322.644714
0.000000, 0.000000, 0.000000, -0.376964, 0.770043, -0.551286, -0.734397, 0.620136, -0.343760,  --- 323.644897
0.000000, 0.000000, 0.000000, -0.376964, 0.770043, -0.551286, -0.734397, 0.620136, -0.343760,  --- 324.653839
0.000000, 0.000000, 0.000000, -0.370617, 0.776391, -0.541520, -0.730491, 0.627949, -0.329111,  --- 325.660706
0.000000, 0.000000, 0.000000, -0.370617, 0.776391, -0.541520, -0.730491, 0.627949, -0.329111,  --- 326.660980
0.000000, 0.000000, 0.000000, -0.383312, 0.775414, -0.535661, -0.731467, 0.617694, -0.337413,  --- 327.661285
0.000000, 0.000000, 0.000000, -0.383312, 0.775414, -0.535661, -0.731467, 0.617694, -0.337413,  --- 328.661499
0.000000, 0.000000, 0.000000, -0.380383, 0.781274, -0.537614, -0.726096, 0.627460, -0.338389,  --- 329.663147
0.000000, 0.000000, 0.000000, -0.380383, 0.781274, -0.537614, -0.726096, 0.627460, -0.338389,  --- 330.663574
0.000000, 0.000000, 0.000000, -0.383801, 0.780785, -0.542985, -0.732932, 0.627949, -0.341319,  --- 331.663849
0.000000, 0.000000, 0.000000, -0.383801, 0.780785, -0.542985, -0.732932, 0.627949, -0.341319,  --- 332.666840
0.000000, 0.000000, 0.000000, -0.373058, 0.790551, -0.553239, -0.728538, 0.622089, -0.335948,  --- 333.667236
0.000000, 0.000000, 0.000000, -0.373058, 0.790551, -0.553239, -0.728538, 0.622089, -0.335948,  --- 334.667572
0.000000, 0.000000, 0.000000, -0.375011, 0.754417, -0.535172, -0.731467, 0.619648, -0.326182,  --- 335.684174
0.000000, 0.000000, 0.000000, -0.375011, 0.754417, -0.535172, -0.731467, 0.619648, -0.326182,  --- 336.684540
0.000000, 0.000000, 0.000000, -0.373058, 0.766136, -0.537614, -0.730002, 0.619648, -0.348643,  --- 337.684814
0.000000, 0.000000, 0.000000, -0.373058, 0.766136, -0.537614, -0.730002, 0.619648, -0.348643,  --- 338.702271
0.000000, 0.000000, 0.000000, -0.375500, 0.771019, -0.544450, -0.732932, 0.616718, -0.337413,  --- 339.702606
0.000000, 0.000000, 0.000000, -0.375500, 0.771019, -0.544450, -0.732932, 0.616718, -0.337413,  --- 340.702850
0.000000, 0.000000, 0.000000, -0.385754, 0.764672, -0.539567, -0.729514, 0.621601, -0.336924,  --- 341.703033
0.000000, 0.000000, 0.000000, -0.385754, 0.764672, -0.539567, -0.729514, 0.621601, -0.336924,  --- 342.703278
0.000000, 0.000000, 0.000000, -0.375500, 0.768578, -0.540055, -0.730002, 0.618183, -0.338389,  --- 343.703613
0.000000, 0.000000, 0.000000, -0.375500, 0.768578, -0.540055, -0.730002, 0.618183, -0.338389,  --- 344.703766
0.000000, 0.000000, 0.000000, -0.375500, 0.769066, -0.539567, -0.734397, 0.622577, -0.344737,  --- 345.704041
0.000000, 0.000000, 0.000000, -0.375500, 0.769066, -0.539567, -0.734397, 0.622577, -0.344737,  --- 346.704254
0.000000, 0.000000, 0.000000, -0.374523, 0.771019, -0.537614, -0.730979, 0.615253, -0.341319,  --- 347.704468
0.000000, 0.000000, 0.000000, -0.374523, 0.771019, -0.537614, -0.730979, 0.615253, -0.341319,  --- 348.704742
0.000000, 0.000000, 0.000000, -0.379406, 0.781274, -0.544938, -0.732932, 0.620136, -0.330576,  --- 349.705017
0.000000, 0.000000, 0.000000, -0.379406, 0.781274, -0.544938, -0.732932, 0.620136, -0.330576,  --- 350.705292
0.000000, 0.000000, 0.000000, -0.379894, 0.765648, -0.550798, -0.732444, 0.620136, -0.338389,  --- 351.705444
0.000000, 0.000000, 0.000000, -0.379894, 0.765648, -0.550798, -0.732444, 0.620136, -0.338389,  --- 352.705688
0.000000, 0.000000, 0.000000, -0.379894, 0.772973, -0.533707, -0.735374, 0.623554, -0.334483,  --- 353.705963
0.000000, 0.000000, 0.000000, -0.379894, 0.772973, -0.533707, -0.735374, 0.623554, -0.334483,  --- 354.706207
0.000000, 0.000000, 0.000000, -0.380871, 0.781762, -0.535661, -0.737815, 0.628437, -0.338389,  --- 355.706451
0.000000, 0.000000, 0.000000, -0.380871, 0.781762, -0.535661, -0.737815, 0.628437, -0.338389,  --- 356.716614
0.000000, 0.000000, 0.000000, -0.388684, 0.773949, -0.544938, -0.731467, 0.625019, -0.340342,  --- 357.716980
0.000000, 0.000000, 0.000000, -0.388684, 0.773949, -0.544938, -0.731467, 0.625019, -0.340342,  --- 358.717163
0.000000, 0.000000, 0.000000, -0.379406, 0.778344, -0.556657, -0.735862, 0.627949, -0.336924,  --- 359.717377
0.000000, 0.000000, 0.000000, -0.379406, 0.778344, -0.556657, -0.735862, 0.627949, -0.336924,  --- 360.717804
0.000000, 0.000000, 0.000000, -0.371593, 0.780785, -0.548845, -0.736839, 0.623554, -0.348643,  --- 361.717957
0.000000, 0.000000, 0.000000, -0.371593, 0.780785, -0.548845, -0.736839, 0.623554, -0.348643,  --- 362.735992
0.000000, 0.000000, 0.000000, -0.386242, 0.774926, -0.544450, -0.738304, 0.618183, -0.348155,  --- 363.736420
0.000000, 0.000000, 0.000000, -0.386242, 0.774926, -0.544450, -0.738304, 0.618183, -0.348155,  --- 364.736755
0.000000, 0.000000, 0.000000, -0.381359, 0.772973, -0.551286, -0.728538, 0.617206, -0.341319,  --- 365.737122
0.000000, 0.000000, 0.000000, -0.381359, 0.772973, -0.551286, -0.728538, 0.617206, -0.341319,  --- 366.752686
0.000000, 0.000000, 0.000000, -0.376964, 0.763207, -0.542009, -0.742210, 0.623554, -0.349620,  --- 367.753082
0.000000, 0.000000, 0.000000, -0.376964, 0.763207, -0.542009, -0.742210, 0.623554, -0.349620,  --- 368.762695
0.000000, 0.000000, 0.000000, -0.377453, 0.768090, -0.540544, -0.732932, 0.617694, -0.332530,  --- 369.763123
0.000000, 0.000000, 0.000000, -0.377453, 0.768090, -0.540544, -0.732932, 0.617694, -0.332530,  --- 370.778229
0.000000, 0.000000, 0.000000, -0.388684, 0.770043, -0.542009, -0.725120, 0.631855, -0.352550,  --- 371.778503
0.000000, 0.000000, 0.000000, -0.388684, 0.770043, -0.542009, -0.725120, 0.631855, -0.352550,  --- 372.778870
0.000000, 0.000000, 0.000000, -0.384777, 0.766136, -0.541032, -0.729026, 0.628925, -0.334971,  --- 373.779205
0.000000, 0.000000, 0.000000, -0.384777, 0.766136, -0.541032, -0.729026, 0.628925, -0.334971,  --- 374.801178
0.000000, 0.000000, 0.000000, -0.377941, 0.770531, -0.556169, -0.739768, 0.623554, -0.332530,  --- 375.806885
0.000000, 0.000000, 0.000000, -0.377941, 0.770531, -0.556169, -0.739768, 0.623554, -0.332530,  --- 376.810883
0.000000, 0.000000, 0.000000, -0.375011, 0.763695, -0.537126, -0.730002, 0.622577, -0.334971,  --- 377.811249
0.000000, 0.000000, 0.000000, -0.375011, 0.763695, -0.537126, -0.730002, 0.622577, -0.334971,  --- 378.829742
0.000000, 0.000000, 0.000000, -0.372082, 0.772484, -0.542009, -0.738792, 0.610370, -0.346690,  --- 379.845154
0.000000, 0.000000, 0.000000, -0.372082, 0.772484, -0.542009, -0.738792, 0.610370, -0.346690,  --- 380.858063
0.000000, 0.000000, 0.000000, -0.375500, 0.775414, -0.543473, -0.732444, 0.623554, -0.336436,  --- 381.858459
0.000000, 0.000000, 0.000000, -0.375500, 0.775414, -0.543473, -0.732444, 0.623554, -0.336436,  --- 382.858643
0.000000, 0.000000, 0.000000, -0.383312, 0.770043, -0.001953, -0.730979, 0.625507, -0.340342,  --- 383.876892
0.000000, 0.000000, 0.000000, -0.383312, 0.770043, -0.001953, -0.730979, 0.625507, -0.340342,  --- 384.877350
0.000000, 0.000000, 0.000000, -0.372082, 0.769554, -0.550310, -0.727561, 0.626972, -0.348643,  --- 385.877533
0.000000, 0.000000, 0.000000, -0.372082, 0.769554, -0.550310, -0.727561, 0.626972, -0.348643,  --- 386.877716
0.000000, 0.000000, 0.000000, -0.366222, 0.767113, -0.537126, -0.732932, 0.623554, -0.330576,  --- 387.877960
0.000000, 0.000000, 0.000000, -0.366222, 0.767113, -0.537126, -0.732932, 0.623554, -0.330576,  --- 388.878113
0.000000, 0.000000, 0.000000, -0.381847, 0.769554, -0.534684, -0.727561, 0.619648, -0.347667,  --- 389.878326
0.000000, 0.000000, 0.000000, -0.381847, 0.769554, -0.534684, -0.727561, 0.619648, -0.347667,  --- 390.878479
0.000000, 0.000000, 0.000000, -0.372570, 0.766136, -0.540544, -0.733909, 0.627460, -0.346202,  --- 391.878754
0.000000, 0.000000, 0.000000, -0.372570, 0.766136, -0.540544, -0.733909, 0.627460, -0.346202,  --- 392.878937
0.000000, 0.000000, 0.000000, -0.383312, 0.766136, -0.539567, -0.729026, 0.624042, -0.345714,  --- 393.879181
0.000000, 0.000000, 0.000000, -0.383312, 0.766136, -0.539567, -0.729026, 0.624042, -0.345714,  --- 394.879517
0.000000, 0.000000, 0.000000, -0.372570, 0.778344, -0.551286, -0.728538, 0.626484, -0.337413,  --- 395.891754
0.000000, 0.000000, 0.000000, -0.372570, 0.778344, -0.551286, -0.728538, 0.626484, -0.337413,  --- 396.892365
0.000000, 0.000000, 0.000000, -0.365734, 0.772484, -0.539079, -0.733909, 0.621112, -0.348155,  --- 397.892609
0.000000, 0.000000, 0.000000, -0.365734, 0.772484, -0.539079, -0.733909, 0.621112, -0.348155,  --- 398.892853
0.000000, 0.000000, 0.000000, -0.383801, 0.772973, -0.539567, -0.734397, 0.621112, -0.334483,  --- 399.893066
0.000000, 0.000000, 0.000000, -0.383801, 0.772973, -0.539567, -0.734397, 0.621112, -0.334483,  --- 400.893372
0.000000, 0.000000, 0.000000, -0.371593, 0.774437, -0.526383, -0.743675, 0.620136, -0.344249,  --- 401.893646
0.000000, 0.000000, 0.000000, -0.371593, 0.774437, -0.526383, -0.743675, 0.620136, -0.344249,  --- 402.893829
0.000000, 0.000000, 0.000000, -0.374523, 0.773949, -0.537126, -0.730002, 0.630390, -0.327647,  --- 403.894012
0.000000, 0.000000, 0.000000, -0.374523, 0.773949, -0.537126, -0.730002, 0.630390, -0.327647,  --- 404.894226
0.000000, 0.000000, 0.000000, -0.379894, 0.768090, -0.542985, -0.736350, 0.619648, -0.342784,  --- 405.894470
0.000000, 0.000000, 0.000000, -0.379894, 0.768090, -0.542985, -0.736350, 0.619648, -0.342784,  --- 406.895630
0.000000, 0.000000, 0.000000, -0.382824, 0.772484, -0.542009, -0.732444, 0.621112, -0.345714,  --- 407.896057
0.000000, 0.000000, 0.000000, -0.382824, 0.772484, -0.542009, -0.732444, 0.621112, -0.345714,  --- 408.896240
0.000000, 0.000000, 0.000000, -0.376964, 0.765648, -0.540055, -0.733421, 0.615741, -0.360362,  --- 409.906708
0.000000, 0.000000, 0.000000, -0.376964, 0.765648, -0.540055, -0.733421, 0.615741, -0.360362,  --- 410.907166
0.000000, 0.000000, 0.000000, -0.381847, 0.772973, -0.542009, -0.740257, 0.614765, -0.340831,  --- 411.907654
0.000000, 0.000000, 0.000000, -0.381847, 0.772973, -0.542009, -0.740257, 0.614765, -0.340831,  --- 412.907837
0.000000, 0.000000, 0.000000, -0.379894, 0.774437, -0.551774, -0.737815, 0.620136, -0.340831,  --- 413.908325
0.000000, 0.000000, 0.000000, -0.379894, 0.774437, -0.551774, -0.737815, 0.620136, -0.340831,  --- 414.908630
0.000000, 0.000000, 0.000000, -0.381847, 0.771019, -0.544450, -0.727561, 0.619648, -0.343760,  --- 415.908875
0.000000, 0.000000, 0.000000, -0.381847, 0.771019, -0.544450, -0.727561, 0.619648, -0.343760,  --- 416.909210
0.000000, 0.000000, 0.000000, -0.380871, 0.771019, -0.550310, -0.731467, 0.622089, -0.343760,  --- 417.909485
0.000000, 0.000000, 0.000000, -0.380871, 0.771019, -0.550310, -0.731467, 0.622089, -0.343760,  --- 418.909729
0.000000, 0.000000, 0.000000, -0.380871, 0.775902, -0.541032, -0.740745, 0.632343, -0.339366,  --- 419.909912
0.000000, 0.000000, 0.000000, -0.380871, 0.775902, -0.541032, -0.740745, 0.632343, -0.339366,  --- 420.917450
0.000000, 0.000000, 0.000000, -0.378429, 0.774437, -0.546892, -0.733909, 0.618183, -0.340831,  --- 421.917755
0.000000, 0.000000, 0.000000, -0.378429, 0.774437, -0.546892, -0.733909, 0.618183, -0.340831,  --- 422.925079
0.000000, 0.000000, 0.000000, -0.377453, 0.771508, -0.540055, -0.730979, 0.622577, -0.341319,  --- 423.925415
0.000000, 0.000000, 0.000000, -0.377453, 0.771508, -0.540055, -0.730979, 0.622577, -0.341319,  --- 424.925659
0.000000, 0.000000, 0.000000, -0.380383, 0.772973, -0.539079, -0.734397, 0.625507, -0.340831,  --- 425.925934
0.000000, 0.000000, 0.000000, -0.380383, 0.772973, -0.539079, -0.734397, 0.625507, -0.340831,  --- 426.928436
0.000000, 0.000000, 0.000000, -0.378918, 0.769554, -0.552263, -0.735374, 0.630390, -0.341319,  --- 427.929474
0.000000, 0.000000, 0.000000, -0.378918, 0.769554, -0.552263, -0.735374, 0.630390, -0.341319,  --- 428.929932
0.000000, 0.000000, 0.000000, -0.378429, 0.778832, -0.537126, -0.732932, 0.619159, -0.336436,  --- 429.930237
0.000000, 0.000000, 0.000000, -0.378429, 0.778832, -0.537126, -0.732932, 0.619159, -0.336436,  --- 430.943085
0.000000, 0.000000, 0.000000, -0.371593, 0.773461, -0.545915, -0.729514, 0.623554, -0.334971,  --- 431.951965
0.000000, 0.000000, 0.000000, -0.371593, 0.773461, -0.545915, -0.729514, 0.623554, -0.334971,  --- 432.952393
0.000000, 0.000000, 0.000000, -0.379406, 0.766136, -0.540544, -0.736350, 0.619159, -0.334483,  --- 433.952698
0.000000, 0.000000, 0.000000, -0.379406, 0.766136, -0.540544, -0.736350, 0.619159, -0.334483,  --- 434.952972
0.000000, 0.000000, 0.000000, -0.375988, 0.771996, -0.545427, -0.726584, 0.619648, -0.338389,  --- 435.953186
0.000000, 0.000000, 0.000000, -0.375988, 0.771996, -0.545427, -0.726584, 0.619648, -0.338389,  --- 436.953369
0.000000, 0.000000, 0.000000, -0.381847, 0.771508, -0.540055, -0.730491, 0.624042, -0.339854,  --- 437.953613
0.000000, 0.000000, 0.000000, -0.381847, 0.771508, -0.540055, -0.730491, 0.624042, -0.339854,  --- 438.953827
0.000000, 0.000000, 0.000000, -0.380383, 0.775414, -0.537126, -0.728538, 0.622577, -0.337413,  --- 439.954010
0.000000, 0.000000, 0.000000, -0.380383, 0.775414, -0.537126, -0.728538, 0.622577, -0.337413,  --- 440.960510
0.000000, 0.000000, 0.000000, -0.373058, 0.769554, -0.530778, -0.722190, 0.621601, -0.336924,  --- 441.969208
0.000000, 0.000000, 0.000000, -0.373058, 0.769554, -0.530778, -0.722190, 0.621601, -0.336924,  --- 442.973663
0.000000, 0.000000, 0.000000, -0.378429, 0.771996, -0.553239, -0.731956, 0.628925, -0.339854,  --- 443.973907
0.000000, 0.000000, 0.000000, -0.378429, 0.771996, -0.553239, -0.731956, 0.628925, -0.339854,  --- 444.974182
0.000000, 0.000000, 0.000000, -0.380871, 0.776879, -0.535172, -0.733421, 0.634785, -0.336436,  --- 445.988922
0.000000, 0.000000, 0.000000, -0.380871, 0.776879, -0.535172, -0.733421, 0.634785, -0.336436,  --- 446.989288
0.000000, 0.000000, 0.000000, -0.373546, 0.776391, -0.553239, -0.734397, 0.620624, -0.343272,  --- 447.989624
0.000000, 0.000000, 0.000000, -0.373546, 0.776391, -0.553239, -0.734397, 0.620624, -0.343272,  --- 449.000305
0.000000, 0.000000, 0.000000, -0.382824, 0.765648, -0.548356, -0.733421, 0.610370, -0.344249,  --- 450.005188
0.000000, 0.000000, 0.000000, -0.382824, 0.765648, -0.548356, -0.733421, 0.610370, -0.344249,  --- 451.005524
0.000000, 0.000000, 0.000000, -0.381359, 0.774926, -0.537614, -0.730979, 0.622089, -0.353038,  --- 452.005737
0.000000, 0.000000, 0.000000, -0.381359, 0.774926, -0.537614, -0.730979, 0.622089, -0.353038,  --- 453.005951
0.000000, 0.000000, 0.000000, -0.383312, 0.769066, -0.542009, -0.730002, 0.620136, -0.351573,  --- 454.006165
0.000000, 0.000000, 0.000000, -0.383312, 0.769066, -0.542009, -0.730002, 0.620136, -0.351573,  --- 455.006348
0.000000, 0.000000, 0.000000, -0.375988, 0.779320, -0.543473, -0.731956, 0.629413, -0.342295,  --- 456.006561
0.000000, 0.000000, 0.000000, -0.375988, 0.779320, -0.543473, -0.731956, 0.629413, -0.342295,  --- 457.006775
0.000000, 0.000000, 0.000000, -0.376476, 0.773949, -0.533219, -0.724631, 0.625995, -0.333994,  --- 458.006958
0.000000, 0.000000, 0.000000, -0.376476, 0.773949, -0.533219, -0.724631, 0.625995, -0.333994,  --- 459.007172
0.000000, 0.000000, 0.000000, -0.375011, 0.768578, -0.547868, -0.730491, 0.624531, -0.341319,  --- 460.007385
0.000000, 0.000000, 0.000000, -0.375011, 0.768578, -0.547868, -0.730491, 0.624531, -0.341319,  --- 461.007568
0.000000, 0.000000, 0.000000, -0.364269, 0.768578, -0.548356, -0.732932, 0.615253, -0.326182,  --- 462.007721
0.000000, 0.000000, 0.000000, -0.364269, 0.768578, -0.548356, -0.732932, 0.615253, -0.326182,  --- 463.007965
0.000000, 0.000000, 0.000000, -0.369640, 0.776391, -0.529801, -0.730491, 0.617694, -0.323740,  --- 464.008209
0.000000, 0.000000, 0.000000, -0.369640, 0.776391, -0.529801, -0.730491, 0.617694, -0.323740,  --- 465.008453
0.000000, 0.000000, 0.000000, -0.385754, 0.775414, -0.533219, -0.729514, 0.612323, -0.333018,  --- 466.008759
0.000000, 0.000000, 0.000000, -0.385754, 0.775414, -0.533219, -0.729514, 0.612323, -0.333018,  --- 467.008942
0.000000, 0.000000, 0.000000, -0.383312, 0.770531, -0.544938, -0.730002, 0.627949, -0.346202,  --- 468.009247
0.000000, 0.000000, 0.000000, -0.383312, 0.770531, -0.544938, -0.730002, 0.627949, -0.346202,  --- 469.009430
0.000000, 0.000000, 0.000000, -0.370128, 0.773949, -0.559587, -0.724143, 0.621112, -0.344249,  --- 470.009674
0.000000, 0.000000, 0.000000, -0.370128, 0.773949, -0.559587, -0.724143, 0.621112, -0.344249,  --- 471.009888
0.000000, 0.000000, 0.000000, -0.373058, 0.768090, -0.560564, -0.732932, 0.615253, -0.343272,  --- 472.010071
0.000000, 0.000000, 0.000000, -0.373058, 0.768090, -0.560564, -0.732932, 0.615253, -0.343272,  --- 473.025818
0.000000, 0.000000, 0.000000, -0.383801, 0.772973, -0.531754, -0.736839, 0.617206, -0.333506,  --- 474.026093
0.000000, 0.000000, 0.000000, -0.383801, 0.772973, -0.531754, -0.736839, 0.617206, -0.333506,  --- 475.032410
0.000000, 0.000000, 0.000000, -0.378429, 0.780785, -0.529313, -0.739768, 0.626484, -0.338389,  --- 476.032806
0.000000, 0.000000, 0.000000, -0.378429, 0.780785, -0.529313, -0.739768, 0.626484, -0.338389,  --- 477.044891
0.000000, 0.000000, 0.000000, -0.364269, 0.775902, -0.543473, -0.732932, 0.639179, -0.322275,  --- 478.045227
0.000000, 0.000000, 0.000000, -0.364269, 0.775902, -0.543473, -0.732932, 0.639179, -0.322275,  --- 479.045471
0.000000, 0.000000, 0.000000, -0.370128, 0.775902, -0.518570, -0.741233, 0.629902, -0.326182,  --- 480.045837
0.000000, 0.000000, 0.000000, -0.370128, 0.775902, -0.518570, -0.741233, 0.629902, -0.326182,  --- 481.046082
0.000000, 0.000000, 0.000000, -0.393078, 0.765648, -0.531754, -0.742698, 0.624042, -0.349132,  --- 482.046509
0.000000, 0.000000, 0.000000, -0.393078, 0.765648, -0.531754, -0.742698, 0.624042, -0.349132,  --- 483.046692
0.000000, 0.000000, 0.000000, -0.384289, 0.758812, -0.535172, -0.747093, 0.623066, -0.342784,  --- 484.046875
0.000000, 0.000000, 0.000000, -0.384289, 0.758812, -0.535172, -0.747093, 0.623066, -0.342784,  --- 485.047150
0.000000, 0.000000, 0.000000, -0.378429, 0.773461, -0.554704, -0.738304, 0.623066, -0.339366,  --- 486.047424
0.000000, 0.000000, 0.000000, -0.378429, 0.773461, -0.554704, -0.738304, 0.623066, -0.339366,  --- 487.047699
0.000000, 0.000000, 0.000000, -0.375011, 0.782738, -0.532243, -0.730002, 0.631367, -0.337413,  --- 488.048004
0.000000, 0.000000, 0.000000, -0.375011, 0.782738, -0.532243, -0.730002, 0.631367, -0.337413,  --- 489.048218
0.000000, 0.000000, 0.000000, -0.383312, 0.781274, -0.522477, -0.727561, 0.617206, -0.338389,  --- 490.048401
0.000000, 0.000000, 0.000000, -0.383312, 0.781274, -0.522477, -0.727561, 0.617206, -0.338389,  --- 491.049988
0.000000, 0.000000, 0.000000, -0.370617, 0.789575, -0.528336, -0.739280, 0.602069, -0.342295,  --- 492.050385
0.000000, 0.000000, 0.000000, -0.370617, 0.789575, -0.528336, -0.739280, 0.602069, -0.342295,  --- 493.050598
0.000000, 0.000000, 0.000000, -0.369640, 0.789086, -0.561540, -0.745140, 0.595233, -0.329111,  --- 494.050842
0.000000, 0.000000, 0.000000, -0.369640, 0.789086, -0.561540, -0.745140, 0.595233, -0.329111,  --- 495.051056
0.000000, 0.000000, 0.000000, -0.368663, 0.783227, -0.535172, -0.739768, 0.609393, -0.351085,  --- 496.051270
0.000000, 0.000000, 0.000000, -0.368663, 0.783227, -0.535172, -0.739768, 0.609393, -0.351085,  --- 497.051575
0.000000, 0.000000, 0.000000, -0.377453, 0.776879, -0.521500, -0.721701, 0.631367, -0.362804,  --- 498.051941
0.000000, 0.000000, 0.000000, -0.377453, 0.776879, -0.521500, -0.721701, 0.631367, -0.362804,  --- 499.052216
0.000000, 0.000000, 0.000000, -0.383312, 0.758324, -0.553239, -0.712912, 0.638691, -0.359386,  --- 500.052399
0.000000, 0.000000, 0.000000, -0.383312, 0.758324, -0.553239, -0.712912, 0.638691, -0.359386,  --- 501.052673
0.000000, 0.000000, 0.000000, -0.385754, 0.743186, -0.564958, -0.730491, 0.629902, -0.349132,  --- 502.052887
0.000000, 0.000000, 0.000000, -0.385754, 0.743186, -0.564958, -0.730491, 0.629902, -0.349132,  --- 503.065155
0.000000, 0.000000, 0.000000, -0.389172, 0.741722, -0.559587, -0.741233, 0.623066, -0.342295,  --- 504.065460
0.000000, 0.000000, 0.000000, -0.389172, 0.741722, -0.559587, -0.741233, 0.623066, -0.342295,  --- 505.065674
0.000000, 0.000000, 0.000000, -0.375011, 0.748069, -0.553239, -0.745140, 0.611835, -0.327158,  --- 506.065826
0.000000, 0.000000, 0.000000, -0.375011, 0.748069, -0.553239, -0.745140, 0.611835, -0.327158,  --- 507.066010
0.000000, 0.000000, 0.000000, -0.375011, 0.764672, -0.516129, -0.739280, 0.607440, -0.314463,  --- 508.066254
0.000000, 0.000000, 0.000000, -0.375011, 0.764672, -0.516129, -0.739280, 0.607440, -0.314463,  --- 509.066833
0.000000, 0.000000, 0.000000, -0.375500, 0.786157, -0.500992, -0.744163, 0.627949, -0.331553,  --- 510.073792
0.000000, 0.000000, 0.000000, -0.375500, 0.786157, -0.500992, -0.744163, 0.627949, -0.331553,  --- 511.074188
0.000000, 0.000000, 0.000000, -0.361827, 0.795922, -0.512711, -0.737815, 0.639179, -0.334971,  --- 512.074402
0.000000, 0.000000, 0.000000, -0.361827, 0.795922, -0.512711, -0.737815, 0.639179, -0.334971,  --- 513.074585
0.000000, 0.000000, 0.000000, -0.366710, 0.792993, -0.549333, -0.740745, 0.641133, -0.340831,  --- 514.074951
0.000000, 0.000000, 0.000000, -0.366710, 0.792993, -0.549333, -0.740745, 0.641133, -0.340831,  --- 515.075195
0.000000, 0.000000, 0.000000, -0.368663, 0.780297, -0.581560, -0.718772, 0.616230, -0.366222,  --- 516.075378
0.000000, 0.000000, 0.000000, -0.368663, 0.780297, -0.581560, -0.718772, 0.616230, -0.366222,  --- 517.075745
0.000000, 0.000000, 0.000000, -0.377941, 0.772973, -0.578631, -0.730979, 0.602557, -0.333994,  --- 518.075989
0.000000, 0.000000, 0.000000, -0.377941, 0.772973, -0.578631, -0.730979, 0.602557, -0.333994,  --- 519.076172
0.000000, 0.000000, 0.000000, -0.377941, 0.778344, -0.545915, -0.729026, 0.600604, -0.348643,  --- 520.076416
0.000000, 0.000000, 0.000000, -0.377941, 0.778344, -0.545915, -0.729026, 0.600604, -0.348643,  --- 521.076599
0.000000, 0.000000, 0.000000, -0.375500, 0.786157, -0.536149, -0.727561, 0.618183, -0.318857,  --- 522.076782
0.000000, 0.000000, 0.000000, -0.375500, 0.786157, -0.536149, -0.727561, 0.618183, -0.318857,  --- 523.076904
0.000000, 0.000000, 0.000000, -0.376476, 0.783227, -0.525406, -0.724631, 0.640156, -0.335948,  --- 524.077087
0.000000, 0.000000, 0.000000, -0.376476, 0.783227, -0.525406, -0.724631, 0.640156, -0.335948,  --- 525.077332
0.000000, 0.000000, 0.000000, -0.375988, 0.769554, -0.524430, -0.716819, 0.643574, -0.333506,  --- 526.077515
0.000000, 0.000000, 0.000000, -0.375988, 0.769554, -0.524430, -0.716819, 0.643574, -0.333506,  --- 527.081848
0.000000, 0.000000, 0.000000, -0.384777, 0.754417, -0.556657, -0.725608, 0.638203, -0.344249,  --- 528.114319
0.000000, 0.000000, 0.000000, -0.384777, 0.754417, -0.556657, -0.725608, 0.638203, -0.344249,  --- 529.114746
0.000000, 0.000000, 0.000000, -0.379406, 0.738792, -0.563982, -0.735862, 0.615253, -0.347667,  --- 530.114929
0.000000, 0.000000, 0.000000, -0.379406, 0.738792, -0.563982, -0.735862, 0.615253, -0.347667,  --- 531.116211
0.000000, 0.000000, 0.000000, -0.383801, 0.741722, -0.562029, -0.748069, 0.605487, -0.335948,  --- 532.116455
0.000000, 0.000000, 0.000000, -0.383801, 0.741722, -0.562029, -0.748069, 0.605487, -0.335948,  --- 533.129395
0.000000, 0.000000, 0.000000, -0.389660, 0.744651, -0.541032, -0.754906, 0.603534, -0.327647,  --- 534.129761
0.000000, 0.000000, 0.000000, -0.389660, 0.744651, -0.541032, -0.754906, 0.603534, -0.327647,  --- 535.129944
0.000000, 0.000000, 0.000000, -0.375011, 0.771019, -0.513687, -0.738304, 0.616230, -0.336436,  --- 536.130249
0.000000, 0.000000, 0.000000, -0.375011, 0.771019, -0.513687, -0.738304, 0.616230, -0.336436,  --- 537.130493
0.000000, 0.000000, 0.000000, -0.381847, 0.781762, -0.500503, -0.735374, 0.630878, -0.356944,  --- 538.130676
0.000000, 0.000000, 0.000000, -0.381847, 0.781762, -0.500503, -0.735374, 0.630878, -0.356944,  --- 539.130859
0.000000, 0.000000, 0.000000, -0.379406, 0.778832, -0.529801, -0.730979, 0.628925, -0.344249,  --- 540.131104
0.000000, 0.000000, 0.000000, -0.379406, 0.778832, -0.529801, -0.730979, 0.628925, -0.344249,  --- 541.146057
0.000000, 0.000000, 0.000000, -0.377453, 0.781762, -0.554216, -0.727073, 0.616718, -0.349132,  --- 542.146484
0.000000, 0.000000, 0.000000, -0.377453, 0.781762, -0.554216, -0.727073, 0.616718, -0.349132,  --- 543.146729
0.000000, 0.000000, 0.000000, -0.379894, 0.771508, -0.556657, -0.730979, 0.599627, -0.334483,  --- 544.162170
0.000000, 0.000000, 0.000000, -0.379894, 0.771508, -0.556657, -0.730979, 0.599627, -0.334483,  --- 545.162415
0.000000, 0.000000, 0.000000, -0.385266, 0.769066, -0.567888, -0.735374, 0.600116, -0.323252,  --- 546.162659
0.000000, 0.000000, 0.000000, -0.385266, 0.769066, -0.567888, -0.735374, 0.600116, -0.323252,  --- 547.162964
0.000000, 0.000000, 0.000000, -0.384289, 0.778832, -0.532243, -0.735374, 0.611835, -0.337413,  --- 548.164673
0.000000, 0.000000, 0.000000, -0.384289, 0.778832, -0.532243, -0.735374, 0.611835, -0.337413,  --- 549.165100
0.000000, 0.000000, 0.000000, -0.386730, 0.779809, -0.528825, -0.733909, 0.621601, -0.355479,  --- 550.165527
0.000000, 0.000000, 0.000000, -0.386730, 0.779809, -0.528825, -0.733909, 0.621601, -0.355479,  --- 551.165710
0.000000, 0.000000, 0.000000, -0.381359, 0.780785, -0.522965, -0.727073, 0.640644, -0.357921,  --- 552.181641
0.000000, 0.000000, 0.000000, -0.381359, 0.780785, -0.522965, -0.727073, 0.640644, -0.357921,  --- 553.182068
0.000000, 0.000000, 0.000000, -0.382824, 0.775414, -0.540544, -0.725608, 0.644062, -0.345714,  --- 554.182251
0.000000, 0.000000, 0.000000, -0.382824, 0.775414, -0.540544, -0.725608, 0.644062, -0.345714,  --- 555.195679
0.000000, 0.000000, 0.000000, -0.381359, 0.758812, -0.542009, -0.741722, 0.633320, -0.332041,  --- 556.209717
0.000000, 0.000000, 0.000000, -0.381359, 0.758812, -0.542009, -0.741722, 0.633320, -0.332041,  --- 557.210083
0.000000, 0.000000, 0.000000, -0.381359, 0.758812, -0.552751, -0.754417, 0.621112, -0.332530,  --- 558.210266
0.000000, 0.000000, 0.000000, -0.381359, 0.758812, -0.552751, -0.754417, 0.621112, -0.332530,  --- 559.210571
0.000000, 0.000000, 0.000000, -0.370617, 0.764183, -0.541032, -0.749534, 0.613300, -0.316416,  --- 560.211304
0.000000, 0.000000, 0.000000, -0.370617, 0.764183, -0.541032, -0.749534, 0.613300, -0.316416,  --- 561.211975
0.000000, 0.000000, 0.000000, -0.377941, 0.771019, -0.536637, -0.745140, 0.611347, -0.333506,  --- 562.212219
0.000000, 0.000000, 0.000000, -0.377941, 0.771019, -0.536637, -0.745140, 0.611347, -0.333506,  --- 563.212524
0.000000, 0.000000, 0.000000, -0.368663, 0.775414, -0.525406, -0.726584, 0.617694, -0.357921,  --- 564.212830
0.000000, 0.000000, 0.000000, -0.368663, 0.775414, -0.525406, -0.726584, 0.617694, -0.357921,  --- 565.213257
0.000000, 0.000000, 0.000000, -0.379894, 0.773461, -0.538590, -0.716330, 0.638203, -0.369640,  --- 566.213562
0.000000, 0.000000, 0.000000, -0.379894, 0.773461, -0.538590, -0.716330, 0.638203, -0.369640,  --- 567.213745
0.000000, 0.000000, 0.000000, -0.372570, 0.763207, -0.544938, -0.730002, 0.633320, -0.360362,  --- 568.213928
0.000000, 0.000000, 0.000000, -0.372570, 0.763207, -0.544938, -0.730002, 0.633320, -0.360362,  --- 569.214355
0.000000, 0.000000, 0.000000, -0.367199, 0.763207, -0.533707, -0.725120, 0.629413, -0.326182,  --- 570.214539
0.000000, 0.000000, 0.000000, -0.367199, 0.763207, -0.533707, -0.725120, 0.629413, -0.326182,  --- 571.229492
0.000000, 0.000000, 0.000000, -0.382824, 0.770043, -0.539079, -0.726584, 0.613788, -0.314951,  --- 572.229919
0.000000, 0.000000, 0.000000, -0.382824, 0.770043, -0.539079, -0.726584, 0.613788, -0.314951,  --- 573.230164
0.000000, 0.000000, 0.000000, -0.370128, 0.771508, -0.545915, -0.726584, 0.608417, -0.302255,  --- 574.230347
0.000000, 0.000000, 0.000000, -0.370128, 0.771508, -0.545915, -0.726584, 0.608417, -0.302255,  --- 575.230591
0.000000, 0.000000, 0.000000, -0.371105, 0.771996, -0.535661, -0.731467, 0.612323, -0.337413,  --- 576.237366
0.000000, 0.000000, 0.000000, -0.371105, 0.771996, -0.535661, -0.731467, 0.612323, -0.337413,  --- 577.239197
0.000000, 0.000000, 0.000000, -0.369640, 0.777367, -0.534684, -0.722678, 0.628925, -0.375011,  --- 578.239624
0.000000, 0.000000, 0.000000, -0.369640, 0.777367, -0.534684, -0.722678, 0.628925, -0.375011,  --- 579.250610
0.000000, 0.000000, 0.000000, -0.370617, 0.774437, -0.550310, -0.723655, 0.645039, -0.347667,  --- 580.251770
0.000000, 0.000000, 0.000000, -0.370617, 0.774437, -0.550310, -0.723655, 0.645039, -0.347667,  --- 581.252014
0.000000, 0.000000, 0.000000, -0.381359, 0.774437, -0.540055, -0.727561, 0.646016, -0.332530,  --- 582.252380
0.000000, 0.000000, 0.000000, -0.381359, 0.774437, -0.540055, -0.727561, 0.646016, -0.332530,  --- 583.252686
0.000000, 0.000000, 0.000000, -0.375500, 0.772973, -0.542497, -0.736350, 0.624531, -0.314463,  --- 584.253052
0.000000, 0.000000, 0.000000, -0.375500, 0.772973, -0.542497, -0.736350, 0.624531, -0.314463,  --- 585.253296
0.000000, 0.000000, 0.000000, -0.374523, 0.760277, -0.541520, -0.741722, 0.604999, -0.312998,  --- 586.253479
0.000000, 0.000000, 0.000000, -0.374523, 0.760277, -0.541520, -0.741722, 0.604999, -0.312998,  --- 587.274780
0.000000, 0.000000, 0.000000, -0.372082, 0.770531, -0.525895, -0.747093, 0.601092, -0.326182,  --- 588.275208
0.000000, 0.000000, 0.000000, -0.372082, 0.770531, -0.525895, -0.747093, 0.601092, -0.326182,  --- 589.275452
0.000000, 0.000000, 0.000000, -0.375500, 0.778832, -0.545427, -0.736350, 0.620624, -0.335948,  --- 590.275635
0.000000, 0.000000, 0.000000, -0.375500, 0.778832, -0.545427, -0.736350, 0.620624, -0.335948,  --- 591.275879
0.000000, 0.000000, 0.000000, -0.382824, 0.764183, -0.542985, -0.716819, 0.637715, -0.358898,  --- 592.276123
0.000000, 0.000000, 0.000000, -0.382824, 0.764183, -0.542985, -0.716819, 0.637715, -0.358898,  --- 593.276428
0.000000, 0.000000, 0.000000, -0.376964, 0.765648, -0.538590, -0.727561, 0.646992, -0.363780,  --- 594.277100
0.000000, 0.000000, 0.000000, -0.376964, 0.765648, -0.538590, -0.727561, 0.646992, -0.363780,  --- 595.279785
0.000000, 0.000000, 0.000000, -0.381359, 0.769554, -0.549333, -0.730491, 0.638691, -0.336924,  --- 596.280212
0.000000, 0.000000, 0.000000, -0.381359, 0.769554, -0.549333, -0.730491, 0.638691, -0.336924,  --- 597.280579
0.000000, 0.000000, 0.000000, -0.376964, 0.780297, -0.535661, -0.734885, 0.619159, -0.316416,  --- 598.280823
0.000000, 0.000000, 0.000000, -0.376964, 0.780297, -0.535661, -0.734885, 0.619159, -0.316416,  --- 599.281067
0.000000, 0.000000, 0.000000, -0.376476, 0.767601, -0.546892, -0.733421, 0.602557, -0.298837,  --- 600.281311
0.000000, 0.000000, 0.000000, -0.376476, 0.767601, -0.546892, -0.733421, 0.602557, -0.298837,  --- 601.281494
0.000000, 0.000000, 0.000000, -0.375500, 0.795434, -0.547380, -0.743186, 0.610370, -0.326182,  --- 602.281860
0.000000, 0.000000, 0.000000, -0.375500, 0.795434, -0.547380, -0.743186, 0.610370, -0.326182,  --- 603.282104
0.000000, 0.000000, 0.000000, -0.369640, 0.775414, -0.541520, -0.744163, 0.626972, -0.350597,  --- 604.282471
0.000000, 0.000000, 0.000000, -0.369640, 0.775414, -0.541520, -0.744163, 0.626972, -0.350597,  --- 605.299744
0.000000, 0.000000, 0.000000, -0.371105, 0.779320, -0.534196, -0.733421, 0.632832, -0.364757,  --- 606.300049
0.000000, 0.000000, 0.000000, -0.371105, 0.779320, -0.534196, -0.733421, 0.632832, -0.364757,  --- 607.300293
0.000000, 0.000000, 0.000000, -0.379406, 0.776879, -0.539079, -0.725120, 0.636250, -0.373546,  --- 608.300598
0.000000, 0.000000, 0.000000, -0.379406, 0.776879, -0.539079, -0.725120, 0.636250, -0.373546,  --- 609.300842
0.000000, 0.000000, 0.000000, -0.380871, 0.776391, -0.544938, -0.734397, 0.619648, -0.343760,  --- 610.301208
0.000000, 0.000000, 0.000000, -0.380871, 0.776391, -0.544938, -0.734397, 0.619648, -0.343760,  --- 611.301514
0.000000, 0.000000, 0.000000, -0.383312, 0.769554, -0.561540, -0.735862, 0.609393, -0.314951,  --- 612.306519
0.000000, 0.000000, 0.000000, -0.383312, 0.769554, -0.561540, -0.735862, 0.609393, -0.314951,  --- 613.307922
0.000000, 0.000000, 0.000000, -0.390637, 0.768090, -0.535172, -0.736350, 0.607929, -0.312998,  --- 614.308472
0.000000, 0.000000, 0.000000, -0.390637, 0.768090, -0.535172, -0.736350, 0.607929, -0.312998,  --- 615.308777
0.000000, 0.000000, 0.000000, -0.381359, 0.770531, -0.542497, -0.742210, 0.610370, -0.332530,  --- 616.309021
0.000000, 0.000000, 0.000000, -0.381359, 0.770531, -0.542497, -0.742210, 0.610370, -0.332530,  --- 617.309326
0.000000, 0.000000, 0.000000, -0.379406, 0.764672, -0.540544, -0.730979, 0.624042, -0.351573,  --- 618.309509
0.000000, 0.000000, 0.000000, -0.379406, 0.764672, -0.540544, -0.730979, 0.624042, -0.351573,  --- 619.324585
0.000000, 0.000000, 0.000000, -0.389660, 0.770043, -0.525406, -0.721701, 0.625507, -0.372570,  --- 620.324951
0.000000, 0.000000, 0.000000, -0.389660, 0.770043, -0.525406, -0.721701, 0.625507, -0.372570,  --- 621.325562
0.000000, 0.000000, 0.000000, -0.390148, 0.774926, -0.542985, -0.727073, 0.626972, -0.355968,  --- 622.325989
0.000000, 0.000000, 0.000000, -0.390148, 0.774926, -0.542985, -0.727073, 0.626972, -0.355968,  --- 623.326172
0.000000, 0.000000, 0.000000, -0.384289, 0.761253, -0.557146, -0.733909, 0.622089, -0.340342,  --- 624.326355
0.000000, 0.000000, 0.000000, -0.384289, 0.761253, -0.557146, -0.733909, 0.622089, -0.340342,  --- 625.346008
0.000000, 0.000000, 0.000000, -0.375500, 0.769554, -0.539567, -0.738304, 0.622089, -0.333506,  --- 626.346375
0.000000, 0.000000, 0.000000, -0.375500, 0.769554, -0.539567, -0.738304, 0.622089, -0.333506,  --- 627.359619
0.000000, 0.000000, 0.000000, -0.377941, 0.771019, -0.552263, -0.743186, 0.612323, -0.301767,  --- 628.360046
0.000000, 0.000000, 0.000000, -0.377941, 0.771019, -0.552263, -0.743186, 0.612323, -0.301767,  --- 629.360352
0.000000, 0.000000, 0.000000, -0.376476, 0.775414, -0.544450, -0.740257, 0.625019, -0.336924,  --- 630.378601
0.000000, 0.000000, 0.000000, -0.376476, 0.775414, -0.544450, -0.740257, 0.625019, -0.336924,  --- 631.379089
0.000000, 0.000000, 0.000000, -0.383312, 0.774926, -0.546403, -0.735862, 0.631855, -0.347667,  --- 632.385376
0.000000, 0.000000, 0.000000, -0.383312, 0.774926, -0.546403, -0.735862, 0.631855, -0.347667,  --- 633.385742
0.000000, 0.000000, 0.000000, -0.367199, 0.778832, -0.550310, -0.722678, 0.642597, -0.351573,  --- 634.385925
0.000000, 0.000000, 0.000000, -0.367199, 0.778832, -0.550310, -0.722678, 0.642597, -0.351573,  --- 635.398376
0.000000, 0.000000, 0.000000, -0.371105, 0.774926, -0.558122, -0.724631, 0.635273, -0.356944,  --- 636.398743
0.000000, 0.000000, 0.000000, -0.371105, 0.774926, -0.558122, -0.724631, 0.635273, -0.356944,  --- 637.398987
0.000000, 0.000000, 0.000000, -0.375988, 0.774926, -0.546892, -0.726096, 0.624531, -0.335459,  --- 638.399231
0.000000, 0.000000, 0.000000, -0.375988, 0.774926, -0.546892, -0.726096, 0.624531, -0.335459,  --- 639.399475
0.000000, 0.000000, 0.000000, -0.376964, 0.771996, -0.545427, -0.736350, 0.610858, -0.321299,  --- 640.399597
0.000000, 0.000000, 0.000000, -0.376964, 0.771996, -0.545427, -0.736350, 0.610858, -0.321299,  --- 641.399780
0.000000, 0.000000, 0.000000, -0.381847, 0.768578, -0.544450, -0.737327, 0.609882, -0.313974,  --- 642.400085
0.000000, 0.000000, 0.000000, -0.381847, 0.768578, -0.544450, -0.737327, 0.609882, -0.313974,  --- 643.400269
0.000000, 0.000000, 0.000000, -0.381359, 0.769066, -0.539079, -0.736839, 0.620624, -0.330088,  --- 644.400635
0.000000, 0.000000, 0.000000, -0.381359, 0.769066, -0.539079, -0.736839, 0.620624, -0.330088,  --- 645.406982
0.000000, 0.000000, 0.000000, -0.369640, 0.777367, -0.534196, -0.727561, 0.622089, -0.344249,  --- 646.407349
0.000000, 0.000000, 0.000000, -0.369640, 0.777367, -0.534196, -0.727561, 0.622089, -0.344249,  --- 647.407715
0.000000, 0.000000, 0.000000, -0.377941, 0.763207, -0.540055, -0.729026, 0.642109, -0.359386,  --- 648.407959
0.000000, 0.000000, 0.000000, -0.377941, 0.763207, -0.540055, -0.729026, 0.642109, -0.359386,  --- 649.408203
0.000000, 0.000000, 0.000000, -0.376964, 0.769554, -0.538590, -0.737815, 0.628437, -0.348643,  --- 650.408508
0.000000, 0.000000, 0.000000, -0.376964, 0.769554, -0.538590, -0.737815, 0.628437, -0.348643,  --- 651.408752
0.000000, 0.000000, 0.000000, -0.374523, 0.770531, -0.543473, -0.732932, 0.624042, -0.336924,  --- 652.408997
0.000000, 0.000000, 0.000000, -0.374523, 0.770531, -0.543473, -0.732932, 0.624042, -0.336924,  --- 653.409485
0.000000, 0.000000, 0.000000, -0.375011, 0.759300, -0.536637, -0.741233, 0.617694, -0.313974,  --- 654.409607
0.000000, 0.000000, 0.000000, -0.375011, 0.759300, -0.536637, -0.741233, 0.617694, -0.313974,  --- 655.409790
0.000000, 0.000000, 0.000000, -0.379406, 0.777367, -0.546892, -0.732444, 0.616230, -0.313486,  --- 656.410034
0.000000, 0.000000, 0.000000, -0.379406, 0.777367, -0.546892, -0.732444, 0.616230, -0.313486,  --- 657.410217
0.000000, 0.000000, 0.000000, -0.374035, 0.771996, -0.545915, -0.735374, 0.621112, -0.308603,  --- 658.410461
0.000000, 0.000000, 0.000000, -0.374035, 0.771996, -0.545915, -0.735374, 0.621112, -0.308603,  --- 659.415833
0.000000, 0.000000, 0.000000, -0.380871, 0.778832, -0.546403, -0.729514, 0.627949, -0.336436,  --- 660.416199
0.000000, 0.000000, 0.000000, -0.380871, 0.778832, -0.546403, -0.729514, 0.627949, -0.336436,  --- 661.416443
0.000000, 0.000000, 0.000000, -0.383312, 0.778344, -0.535661, -0.727073, 0.621112, -0.349620,  --- 662.416687
0.000000, 0.000000, 0.000000, -0.383312, 0.778344, -0.535661, -0.727073, 0.621112, -0.349620,  --- 663.416931
0.000000, 0.000000, 0.000000, -0.378429, 0.773461, -0.538590, -0.722190, 0.624042, -0.357921,  --- 664.417175
0.000000, 0.000000, 0.000000, -0.378429, 0.773461, -0.538590, -0.722190, 0.624042, -0.357921,  --- 665.417542
0.000000, 0.000000, 0.000000, -0.374035, 0.777367, -0.548845, -0.722678, 0.624042, -0.345714,  --- 666.417847
0.000000, 0.000000, 0.000000, -0.374035, 0.777367, -0.548845, -0.722678, 0.624042, -0.345714,  --- 667.418213
0.000000, 0.000000, 0.000000, -0.374035, 0.771996, -0.546403, -0.732932, 0.610370, -0.329111,  --- 668.418518
0.000000, 0.000000, 0.000000, -0.374035, 0.771996, -0.546403, -0.732932, 0.610370, -0.329111,  --- 669.418762
0.000000, 0.000000, 0.000000, -0.382336, 0.774437, -0.546403, -0.734397, 0.618671, -0.330088,  --- 670.418945
0.000000, 0.000000, 0.000000, -0.382336, 0.774437, -0.546403, -0.734397, 0.618671, -0.330088,  --- 671.419189
0.000000, 0.000000, 0.000000, -0.375988, 0.764183, -0.542497, -0.739280, 0.620624, -0.329600,  --- 672.419373
0.000000, 0.000000, 0.000000, -0.375988, 0.764183, -0.542497, -0.739280, 0.620624, -0.329600,  --- 673.419617
0.000000, 0.000000, 0.000000, -0.385266, 0.770531, -0.538590, -0.738304, 0.634785, -0.359386,  --- 674.419800
0.000000, 0.000000, 0.000000, -0.385266, 0.770531, -0.538590, -0.738304, 0.634785, -0.359386,  --- 675.419983
0.000000, 0.000000, 0.000000, -0.382336, 0.761742, -0.524918, -0.729026, 0.624531, -0.358898,  --- 676.420227
0.000000, 0.000000, 0.000000, -0.382336, 0.761742, -0.524918, -0.729026, 0.624531, -0.358898,  --- 677.434021
0.000000, 0.000000, 0.000000, -0.372570, 0.773461, -0.543473, -0.728538, 0.630878, -0.361827,  --- 678.434326
0.000000, 0.000000, 0.000000, -0.372570, 0.773461, -0.543473, -0.728538, 0.630878, -0.361827,  --- 679.438110
0.000000, 0.000000, 0.000000, -0.375011, 0.770531, -0.542009, -0.733421, 0.620136, -0.347178,  --- 680.438538
0.000000, 0.000000, 0.000000, -0.375011, 0.770531, -0.542009, -0.733421, 0.620136, -0.347178,  --- 681.441528
0.000000, 0.000000, 0.000000, -0.366222, 0.775414, -0.542497, -0.739280, 0.611835, -0.312998,  --- 682.442017
0.000000, 0.000000, 0.000000, -0.366222, 0.775414, -0.542497, -0.739280, 0.611835, -0.312998,  --- 683.452759
0.000000, 0.000000, 0.000000, -0.376476, 0.771019, -0.540055, -0.745140, 0.605975, -0.316416,  --- 684.453247
0.000000, 0.000000, 0.000000, -0.376476, 0.771019, -0.540055, -0.745140, 0.605975, -0.316416,  --- 685.453613
0.000000, 0.000000, 0.000000, -0.377941, 0.770043, -0.531754, -0.732932, 0.617206, -0.331065,  --- 686.453796
0.000000, 0.000000, 0.000000, -0.377941, 0.770043, -0.531754, -0.732932, 0.617206, -0.331065,  --- 687.453979
0.000000, 0.000000, 0.000000, -0.382824, 0.775902, -0.533219, -0.724143, 0.622089, -0.344737,  --- 688.454224
0.000000, 0.000000, 0.000000, -0.382824, 0.775902, -0.533219, -0.724143, 0.622089, -0.344737,  --- 689.454468
0.000000, 0.000000, 0.000000, -0.379406, 0.769554, -0.543473, -0.728538, 0.632832, -0.351085,  --- 690.454712
0.000000, 0.000000, 0.000000, -0.379406, 0.769554, -0.543473, -0.728538, 0.632832, -0.351085,  --- 691.468689
0.000000, 0.000000, 0.000000, -0.379406, 0.768578, -0.539079, -0.732444, 0.633808, -0.348643,  --- 692.469727
0.000000, 0.000000, 0.000000, -0.379406, 0.768578, -0.539079, -0.732444, 0.633808, -0.348643,  --- 693.470032
0.000000, 0.000000, 0.000000, -0.373546, 0.775414, -0.555681, -0.730979, 0.625019, -0.325693,  --- 694.475098
0.000000, 0.000000, 0.000000, -0.373546, 0.775414, -0.555681, -0.730979, 0.625019, -0.325693,  --- 695.475525
0.000000, 0.000000, 0.000000, -0.374523, 0.758324, -0.551774, -0.737815, 0.629413, -0.325205,  --- 696.475830
0.000000, 0.000000, 0.000000, -0.374523, 0.758324, -0.551774, -0.737815, 0.629413, -0.325205,  --- 697.476074
0.000000, 0.000000, 0.000000, -0.377453, 0.770043, -0.537126, -0.739768, 0.614276, -0.315928,  --- 698.476318
0.000000, 0.000000, 0.000000, -0.377453, 0.770043, -0.537126, -0.739768, 0.614276, -0.315928,  --- 699.476562
0.000000, 0.000000, 0.000000, -0.382824, 0.765648, -0.542985, -0.736350, 0.631367, -0.333506,  --- 700.476807
0.000000, 0.000000, 0.000000, -0.382824, 0.765648, -0.542985, -0.736350, 0.631367, -0.333506,  --- 701.477051
0.000000, 0.000000, 0.000000, -0.375011, 0.762718, -0.542985, -0.732932, 0.625995, -0.339854,  --- 702.477234
0.000000, 0.000000, 0.000000, -0.375011, 0.762718, -0.542985, -0.732932, 0.625995, -0.339854,  --- 703.477356
0.000000, 0.000000, 0.000000, -0.382824, 0.770043, -0.534684, -0.727561, 0.621601, -0.348643,  --- 704.493774
0.000000, 0.000000, 0.000000, -0.382824, 0.770043, -0.534684, -0.727561, 0.621601, -0.348643,  --- 705.494141
0.000000, 0.000000, 0.000000, -0.378429, 0.773949, -0.546892, -0.726096, 0.623554, -0.352061,  --- 706.494324
0.000000, 0.000000, 0.000000, -0.378429, 0.773949, -0.546892, -0.726096, 0.623554, -0.352061,  --- 707.499390
0.000000, 0.000000, 0.000000, -0.372570, 0.767601, -0.534196, -0.732444, 0.625995, -0.346202,  --- 708.518921
0.000000, 0.000000, 0.000000, -0.372570, 0.767601, -0.534196, -0.732444, 0.625995, -0.346202,  --- 709.530396
0.000000, 0.000000, 0.000000, -0.374523, 0.776391, -0.543473, -0.735862, 0.623066, -0.324229,  --- 710.530701
0.000000, 0.000000, 0.000000, -0.374523, 0.776391, -0.543473, -0.735862, 0.623066, -0.324229,  --- 711.540527
0.000000, 0.000000, 0.000000, -0.377453, 0.775414, -0.539567, -0.732444, 0.617694, -0.319834,  --- 712.543457
0.000000, 0.000000, 0.000000, -0.377453, 0.775414, -0.539567, -0.732444, 0.617694, -0.319834,  --- 713.544128
0.000000, 0.000000, 0.000000, -0.371593, 0.778832, -0.541520, -0.733421, 0.630390, -0.337901,  --- 714.544312
0.000000, 0.000000, 0.000000, -0.371593, 0.778832, -0.541520, -0.733421, 0.630390, -0.337901,  --- 715.544617
0.000000, 0.000000, 0.000000, -0.374035, 0.778832, -0.534684, -0.734885, 0.635273, -0.357433,  --- 716.544861
0.000000, 0.000000, 0.000000, -0.374035, 0.778832, -0.534684, -0.734885, 0.635273, -0.357433,  --- 717.545166
0.000000, 0.000000, 0.000000, -0.373058, 0.775414, -0.542985, -0.731467, 0.635273, -0.355968,  --- 718.545410
0.000000, 0.000000, 0.000000, -0.373058, 0.775414, -0.542985, -0.731467, 0.635273, -0.355968,  --- 719.545593
0.000000, 0.000000, 0.000000, -0.381359, 0.776879, -0.539567, -0.738792, 0.633808, -0.348643,  --- 720.545776
0.000000, 0.000000, 0.000000, -0.381359, 0.776879, -0.539567, -0.738792, 0.633808, -0.348643,  --- 721.550110
0.000000, 0.000000, 0.000000, -0.376476, 0.759789, -0.552751, -0.735862, 0.633808, -0.341319,  --- 722.550415
0.000000, 0.000000, 0.000000, -0.376476, 0.759789, -0.552751, -0.735862, 0.633808, -0.341319,  --- 723.550659
0.000000, 0.000000, 0.000000, -0.380383, 0.773949, -0.546892, -0.743186, 0.615253, -0.333506,  --- 724.550781
0.000000, 0.000000, 0.000000, -0.380383, 0.773949, -0.546892, -0.743186, 0.615253, -0.333506,  --- 725.551025
0.000000, 0.000000, 0.000000, -0.377941, 0.772973, -0.537126, -0.745140, 0.620624, -0.329600,  --- 726.551147
0.000000, 0.000000, 0.000000, -0.377941, 0.772973, -0.537126, -0.745140, 0.620624, -0.329600,  --- 727.566040
0.000000, 0.000000, 0.000000, -0.379406, 0.765648, -0.554704, -0.735862, 0.620136, -0.342784,  --- 728.570435
0.000000, 0.000000, 0.000000, -0.379406, 0.765648, -0.554704, -0.735862, 0.620136, -0.342784,  --- 729.588745
0.000000, 0.000000, 0.000000, -0.381359, 0.771019, -0.542985, -0.733909, 0.621112, -0.354991,  --- 730.589111
0.000000, 0.000000, 0.000000, -0.381359, 0.771019, -0.542985, -0.733909, 0.621112, -0.354991,  --- 731.589355
0.000000, 0.000000, 0.000000, -0.387219, 0.767113, -0.542497, -0.724143, 0.630390, -0.342295,  --- 732.600830
0.000000, 0.000000, 0.000000, -0.387219, 0.767113, -0.542497, -0.724143, 0.630390, -0.342295,  --- 733.601379
0.000000, 0.000000, 0.000000, -0.380383, 0.774926, -0.539079, -0.743186, 0.623066, -0.353038,  --- 734.601624
0.000000, 0.000000, 0.000000, -0.380383, 0.774926, -0.539079, -0.743186, 0.623066, -0.353038,  --- 735.601929
0.000000, 0.000000, 0.000000, -0.381359, 0.767601, -0.533707, -0.732444, 0.614276, -0.320322,  --- 736.602112
0.000000, 0.000000, 0.000000, -0.381359, 0.767601, -0.533707, -0.732444, 0.614276, -0.320322,  --- 737.602356
0.000000, 0.000000, 0.000000, -0.383312, 0.767113, -0.542985, -0.736839, 0.626484, -0.331065,  --- 738.610718
0.000000, 0.000000, 0.000000, -0.383312, 0.767113, -0.542985, -0.736839, 0.626484, -0.331065,  --- 739.611084
0.000000, 0.000000, 0.000000, -0.391613, 0.773949, -0.545915, -0.731956, 0.613300, -0.325205,  --- 740.611267
0.000000, 0.000000, 0.000000, -0.391613, 0.773949, -0.545915, -0.731956, 0.613300, -0.325205,  --- 741.625183
0.000000, 0.000000, 0.000000, -0.383801, 0.764672, -0.536637, -0.735374, 0.622089, -0.343272,  --- 742.625366
0.000000, 0.000000, 0.000000, -0.383801, 0.764672, -0.536637, -0.735374, 0.622089, -0.343272,  --- 743.642334
0.000000, 0.000000, 0.000000, -0.380383, 0.776879, -0.551774, -0.733909, 0.628437, -0.339366,  --- 744.642517
0.000000, 0.000000, 0.000000, -0.380383, 0.776879, -0.551774, -0.733909, 0.628437, -0.339366,  --- 745.652039
0.000000, 0.000000, 0.000000, -0.388684, 0.768578, -0.532243, -0.731467, 0.622089, -0.351085,  --- 746.652466
0.000000, 0.000000, 0.000000, -0.388684, 0.768578, -0.532243, -0.731467, 0.622089, -0.351085,  --- 747.655334
0.000000, 0.000000, 0.000000, -0.374035, 0.774926, -0.538590, -0.734397, 0.626972, -0.349132,  --- 748.655884
0.000000, 0.000000, 0.000000, -0.374035, 0.774926, -0.538590, -0.734397, 0.626972, -0.349132,  --- 749.663757
0.000000, 0.000000, 0.000000, -0.381847, 0.770531, -0.534684, -0.732444, 0.617694, -0.342295,  --- 750.677673
0.000000, 0.000000, 0.000000, -0.381847, 0.770531, -0.534684, -0.732444, 0.617694, -0.342295,  --- 751.678040
0.000000, 0.000000, 0.000000, -0.381847, 0.774926, -0.535172, -0.734885, 0.620136, -0.337413,  --- 752.680725
0.000000, 0.000000, 0.000000, -0.381847, 0.774926, -0.535172, -0.734885, 0.620136, -0.337413,  --- 753.681030
0.000000, 0.000000, 0.000000, -0.377453, 0.776879, -0.533219, -0.734885, 0.613788, -0.332041,  --- 754.681213
0.000000, 0.000000, 0.000000, -0.377453, 0.776879, -0.533219, -0.734885, 0.613788, -0.332041,  --- 755.701660
0.000000, 0.000000, 0.000000, -0.369640, 0.775902, -0.537614, -0.733909, 0.625019, -0.338389,  --- 756.701965
0.000000, 0.000000, 0.000000, -0.369640, 0.775902, -0.537614, -0.733909, 0.625019, -0.338389,  --- 757.702209
0.000000, 0.000000, 0.000000, -0.375011, 0.769066, -0.540055, -0.732932, 0.625507, -0.339854,  --- 758.702454
0.000000, 0.000000, 0.000000, -0.375011, 0.769066, -0.540055, -0.732932, 0.625507, -0.339854,  --- 759.703003
0.000000, 0.000000, 0.000000, -0.382824, 0.776879, -0.542985, -0.732444, 0.625019, -0.336436,  --- 760.703735
0.000000, 0.000000, 0.000000, -0.382824, 0.776879, -0.542985, -0.732444, 0.625019, -0.336436,  --- 761.703918
0.000000, 0.000000, 0.000000, -0.379894, 0.760277, -0.536149, -0.719748, 0.627460, -0.354015,  --- 762.704102
0.000000, 0.000000, 0.000000, -0.379894, 0.760277, -0.536149, -0.719748, 0.627460, -0.354015,  --- 763.704468
0.000000, 0.000000, 0.000000, -0.372082, 0.770531, -0.557634, -0.732444, 0.622089, -0.327647,  --- 764.704773
0.000000, 0.000000, 0.000000, -0.372082, 0.770531, -0.557634, -0.732444, 0.622089, -0.327647,  --- 765.718384
0.000000, 0.000000, 0.000000, -0.381847, 0.774437, -0.540055, -0.734885, 0.620136, -0.333994,  --- 766.718689
0.000000, 0.000000, 0.000000, -0.381847, 0.774437, -0.540055, -0.734885, 0.620136, -0.333994,  --- 767.727173
0.000000, 0.000000, 0.000000, -0.376476, 0.768090, -0.534196, -0.730491, 0.628925, -0.326670,  --- 768.730835
0.000000, 0.000000, 0.000000, -0.376476, 0.768090, -0.534196, -0.730491, 0.628925, -0.326670,  --- 769.731201
0.000000, 0.000000, 0.000000, -0.377941, 0.772973, -0.543473, -0.730002, 0.616718, -0.331065,  --- 770.731445
0.000000, 0.000000, 0.000000, -0.377941, 0.772973, -0.543473, -0.730002, 0.616718, -0.331065,  --- 771.731689
0.000000, 0.000000, 0.000000, -0.365734, 0.769066, -0.542497, -0.726584, 0.626484, -0.344737,  --- 772.731873
0.000000, 0.000000, 0.000000, -0.365734, 0.769066, -0.542497, -0.726584, 0.626484, -0.344737,  --- 773.732056
0.000000, 0.000000, 0.000000, -0.373546, 0.762230, -0.544450, -0.730002, 0.626972, -0.338389,  --- 774.732178
0.000000, 0.000000, 0.000000, -0.373546, 0.762230, -0.544450, -0.730002, 0.626972, -0.338389,  --- 775.737915
0.000000, 0.000000, 0.000000, -0.375988, 0.772484, -0.547868, -0.737327, 0.622089, -0.332530,  --- 776.738342
0.000000, 0.000000, 0.000000, -0.375988, 0.772484, -0.547868, -0.737327, 0.622089, -0.332530,  --- 777.738586
0.000000, 0.000000, 0.000000, -0.382336, 0.767113, -0.548356, -0.730979, 0.621112, -0.340831,  --- 778.738770
0.000000, 0.000000, 0.000000, -0.382336, 0.767113, -0.548356, -0.730979, 0.621112, -0.340831,  --- 779.738953
0.000000, 0.000000, 0.000000, -0.361827, 0.771019, -0.539079, -0.736839, 0.616230, -0.323740,  --- 780.747009
0.000000, 0.000000, 0.000000, -0.361827, 0.771019, -0.539079, -0.736839, 0.616230, -0.323740,  --- 781.752808
0.000000, 0.000000, 0.000000, -0.378429, 0.770043, -0.544450, -0.738792, 0.624531, -0.326670,  --- 782.774414
0.000000, 0.000000, 0.000000, -0.378429, 0.770043, -0.544450, -0.738792, 0.624531, -0.326670,  --- 783.791382
0.000000, 0.000000, 0.000000, -0.379406, 0.772484, -0.546403, -0.735862, 0.620624, -0.335459,  --- 784.791992
0.000000, 0.000000, 0.000000, -0.379406, 0.772484, -0.546403, -0.735862, 0.620624, -0.335459,  --- 785.792358
0.000000, 0.000000, 0.000000, -0.370617, 0.769554, -0.562029, -0.725608, 0.620136, -0.352061,  --- 786.792542
0.000000, 0.000000, 0.000000, -0.370617, 0.769554, -0.562029, -0.725608, 0.620136, -0.352061,  --- 787.792725
0.000000, 0.000000, 0.000000, -0.371105, 0.769066, -0.551286, -0.738792, 0.618183, -0.349620,  --- 788.792908
0.000000, 0.000000, 0.000000, -0.371105, 0.769066, -0.551286, -0.738792, 0.618183, -0.349620,  --- 789.803162
0.000000, 0.000000, 0.000000, -0.380383, 0.764672, -0.544450, -0.730979, 0.622089, -0.336436,  --- 790.803467
0.000000, 0.000000, 0.000000, -0.380383, 0.764672, -0.544450, -0.730979, 0.622089, -0.336436,  --- 791.803711
0.000000, 0.000000, 0.000000, -0.380383, 0.771508, -0.540544, -0.730002, 0.620624, -0.324229,  --- 792.813110
0.000000, 0.000000, 0.000000, -0.380383, 0.771508, -0.540544, -0.730002, 0.620624, -0.324229,  --- 793.813843
0.000000, 0.000000, 0.000000, -0.382824, 0.779320, -0.537614, -0.736839, 0.616230, -0.336924,  --- 794.813965
0.000000, 0.000000, 0.000000, -0.382824, 0.779320, -0.537614, -0.736839, 0.616230, -0.336924,  --- 795.814209
0.000000, 0.000000, 0.000000, -0.386730, 0.768578, -0.536637, -0.737327, 0.619159, -0.338389,  --- 796.827576
0.000000, 0.000000, 0.000000, -0.386730, 0.768578, -0.536637, -0.737327, 0.619159, -0.338389,  --- 797.827820
0.000000, 0.000000, 0.000000, -0.373058, 0.768578, -0.542985, -0.734397, 0.616230, -0.330576,  --- 798.833252
0.000000, 0.000000, 0.000000, -0.373058, 0.768578, -0.542985, -0.734397, 0.616230, -0.330576,  --- 799.833740
0.000000, 0.000000, 0.000000, -0.376476, 0.771508, -0.547868, -0.742210, 0.621112, -0.335948,  --- 800.833984
0.000000, 0.000000, 0.000000, -0.376476, 0.771508, -0.547868, -0.742210, 0.621112, -0.335948,  --- 801.834167
0.000000, 0.000000, 0.000000, -0.379894, 0.783227, -0.539079, -0.735374, 0.622089, -0.360362,  --- 802.834351
0.000000, 0.000000, 0.000000, -0.379894, 0.783227, -0.539079, -0.735374, 0.622089, -0.360362,  --- 803.834473
0.000000, 0.000000, 0.000000, -0.382824, 0.773461, -0.552751, -0.732444, 0.618671, -0.344737,  --- 804.834595
0.000000, 0.000000, 0.000000, -0.382824, 0.773461, -0.552751, -0.732444, 0.618671, -0.344737,  --- 805.834839
0.000000, 0.000000, 0.000000, -0.375500, 0.771019, -0.538590, -0.737327, 0.624531, -0.340831,  --- 806.835022
0.000000, 0.000000, 0.000000, -0.375500, 0.771019, -0.538590, -0.737327, 0.624531, -0.340831,  --- 807.835205
0.000000, 0.000000, 0.000000, -0.375500, 0.767113, -0.551286, -0.739280, 0.617206, -0.329600,  --- 808.835449
0.000000, 0.000000, 0.000000, -0.375500, 0.767113, -0.551286, -0.739280, 0.617206, -0.329600,  --- 809.835693
0.000000, 0.000000, 0.000000, -0.376964, 0.769554, -0.550310, -0.739280, 0.622089, -0.339854,  --- 810.835876
0.000000, 0.000000, 0.000000, -0.376964, 0.769554, -0.550310, -0.739280, 0.622089, -0.339854,  --- 811.835999
0.000000, 0.000000, 0.000000, -0.377941, 0.768090, -0.535172, -0.731467, 0.627949, -0.331553,  --- 812.841614
0.000000, 0.000000, 0.000000, -0.377941, 0.768090, -0.535172, -0.731467, 0.627949, -0.331553,  --- 813.842041
0.000000, 0.000000, 0.000000, -0.382336, 0.771996, -0.538590, -0.722678, 0.632832, -0.333994,  --- 814.842346
0.000000, 0.000000, 0.000000, -0.382336, 0.771996, -0.538590, -0.722678, 0.632832, -0.333994,  --- 815.856384
0.000000, 0.000000, 0.000000, -0.375011, 0.773949, -0.534196, -0.740745, 0.627460, -0.333994,  --- 816.856750
0.000000, 0.000000, 0.000000, -0.375011, 0.773949, -0.534196, -0.740745, 0.627460, -0.333994,  --- 817.868469
0.000000, 0.000000, 0.000000, -0.383312, 0.775414, -0.544450, -0.732444, 0.628437, -0.342295,  --- 818.868713
0.000000, 0.000000, 0.000000, -0.383312, 0.775414, -0.544450, -0.732444, 0.628437, -0.342295,  --- 819.873596
0.000000, 0.000000, 0.000000, -0.376476, 0.773949, -0.544938, -0.738792, 0.618671, -0.327647,  --- 820.888000
0.000000, 0.000000, 0.000000, -0.376476, 0.773949, -0.544938, -0.738792, 0.618671, -0.327647,  --- 821.888428
0.000000, 0.000000, 0.000000, -0.379406, 0.774437, -0.539567, -0.725120, 0.618183, -0.343272,  --- 822.888611
0.000000, 0.000000, 0.000000, -0.379406, 0.774437, -0.539567, -0.725120, 0.618183, -0.343272,  --- 823.888733
0.000000, 0.000000, 0.000000, -0.376476, 0.767601, -0.535661, -0.731956, 0.622577, -0.338389,  --- 824.899292
0.000000, 0.000000, 0.000000, -0.376476, 0.767601, -0.535661, -0.731956, 0.622577, -0.338389,  --- 825.899963
0.000000, 0.000000, 0.000000, -0.376476, 0.775414, -0.535661, -0.732932, 0.626484, -0.339854,  --- 826.900757
0.000000, 0.000000, 0.000000, -0.376476, 0.775414, -0.535661, -0.732932, 0.626484, -0.339854,  --- 827.901306
0.000000, 0.000000, 0.000000, -0.382336, 0.769554, -0.541032, -0.740257, 0.624531, -0.344249,  --- 828.901550
0.000000, 0.000000, 0.000000, -0.382336, 0.769554, -0.541032, -0.740257, 0.624531, -0.344249,  --- 829.901855
0.000000, 0.000000, 0.000000, -0.381847, 0.767113, -0.550310, -0.730002, 0.631855, -0.348155,  --- 830.902100
0.000000, 0.000000, 0.000000, -0.381847, 0.767113, -0.550310, -0.730002, 0.631855, -0.348155,  --- 831.920349
0.000000, 0.000000, 0.000000, -0.378429, 0.781274, -0.534684, -0.732444, 0.625507, -0.343760,  --- 832.920776
0.000000, 0.000000, 0.000000, -0.378429, 0.781274, -0.534684, -0.732444, 0.625507, -0.343760,  --- 833.921021
0.000000, 0.000000, 0.000000, -0.376476, 0.778832, -0.547868, -0.728538, 0.622089, -0.330576,  --- 834.921143
0.000000, 0.000000, 0.000000, -0.376476, 0.778832, -0.547868, -0.728538, 0.622089, -0.330576,  --- 835.921326
0.000000, 0.000000, 0.000000, -0.365245, 0.768578, -0.527848, -0.736839, 0.622089, -0.321299,  --- 836.921509
0.000000, 0.000000, 0.000000, -0.365245, 0.768578, -0.527848, -0.736839, 0.622089, -0.321299,  --- 837.921692
0.000000, 0.000000, 0.000000, -0.374523, 0.783227, -0.536149, -0.734885, 0.625019, -0.323252,  --- 838.921875
0.000000, 0.000000, 0.000000, -0.374523, 0.783227, -0.536149, -0.734885, 0.625019, -0.323252,  --- 839.934326
0.000000, 0.000000, 0.000000, -0.378429, 0.762230, -0.533219, -0.736839, 0.622089, -0.332530,  --- 840.934631
0.000000, 0.000000, 0.000000, -0.378429, 0.762230, -0.533219, -0.736839, 0.622089, -0.332530,  --- 841.943848
0.000000, 0.000000, 0.000000, -0.376964, 0.779809, -0.548356, -0.738304, 0.627949, -0.341807,  --- 842.955200
0.000000, 0.000000, 0.000000, -0.376964, 0.779809, -0.548356, -0.738304, 0.627949, -0.341807,  --- 843.962463
0.000000, 0.000000, 0.000000, -0.367687, 0.769554, -0.546403, -0.736350, 0.627460, -0.341319,  --- 844.962891
0.000000, 0.000000, 0.000000, -0.367687, 0.769554, -0.546403, -0.736350, 0.627460, -0.341319,  --- 845.963074
0.000000, 0.000000, 0.000000, -0.378429, 0.774437, -0.540544, -0.733421, 0.630878, -0.341319,  --- 846.963318
0.000000, 0.000000, 0.000000, -0.378429, 0.774437, -0.540544, -0.733421, 0.630878, -0.341319,  --- 847.963501
0.000000, 0.000000, 0.000000, -0.376476, 0.771019, -0.544938, -0.738304, 0.626484, -0.336436,  --- 848.984680
0.000000, 0.000000, 0.000000, -0.376476, 0.771019, -0.544938, -0.738304, 0.626484, -0.336436,  --- 849.984985
0.000000, 0.000000, 0.000000, -0.378429, 0.770531, -0.544450, -0.731956, 0.623554, -0.317881,  --- 850.985229
0.000000, 0.000000, 0.000000, -0.378429, 0.770531, -0.544450, -0.731956, 0.623554, -0.317881,  --- 851.985413
0.000000, 0.000000, 0.000000, -0.362316, 0.761253, -0.541520, -0.729514, 0.625019, -0.341807,  --- 852.985535
0.000000, 0.000000, 0.000000, -0.362316, 0.761253, -0.541520, -0.729514, 0.625019, -0.341807,  --- 853.998657
0.000000, 0.000000, 0.000000, -0.377941, 0.764672, -0.541032, -0.736350, 0.621601, -0.334971,  --- 854.999023
0.000000, 0.000000, 0.000000, -0.377941, 0.764672, -0.541032, -0.736350, 0.621601, -0.334971,  --- 855.999207
0.000000, 0.000000, 0.000000, -0.380383, 0.772484, -0.541520, -0.733909, 0.623554, -0.348155,  --- 856.999329
0.000000, 0.000000, 0.000000, -0.380383, 0.772484, -0.541520, -0.733909, 0.623554, -0.348155,  --- 857.999512
0.000000, 0.000000, 0.000000, -0.374523, 0.768090, -0.547380, -0.726096, 0.624042, -0.349132,  --- 858.999756
0.000000, 0.000000, 0.000000, -0.374523, 0.768090, -0.547380, -0.726096, 0.624042, -0.349132,  --- 859.999939
0.000000, 0.000000, 0.000000, -0.380871, 0.767601, -0.553728, -0.738304, 0.613300, -0.345225,  --- 861.000183
0.000000, 0.000000, 0.000000, -0.380871, 0.767601, -0.553728, -0.738304, 0.613300, -0.345225,  --- 862.000427
0.000000, 0.000000, 0.000000, -0.374035, 0.774926, -0.536149, -0.727073, 0.619648, -0.339854,  --- 863.000671
0.000000, 0.000000, 0.000000, -0.374035, 0.774926, -0.536149, -0.727073, 0.619648, -0.339854,  --- 864.000916
0.000000, 0.000000, 0.000000, -0.379406, 0.767113, -0.554704, -0.729026, 0.604510, -0.338389,  --- 865.001221
0.000000, 0.000000, 0.000000, -0.379406, 0.767113, -0.554704, -0.729026, 0.604510, -0.338389,  --- 866.010132
0.000000, 0.000000, 0.000000, -0.379406, 0.771508, -0.542009, -0.730002, 0.617206, -0.325205,  --- 867.010620
0.000000, 0.000000, 0.000000, -0.379406, 0.771508, -0.542009, -0.730002, 0.617206, -0.325205,  --- 868.010864
0.000000, 0.000000, 0.000000, -0.385754, 0.773949, -0.535661, -0.734885, 0.623554, -0.330576,  --- 869.010986
0.000000, 0.000000, 0.000000, -0.385754, 0.773949, -0.535661, -0.734885, 0.623554, -0.330576,  --- 870.027161
0.000000, 0.000000, 0.000000, -0.376964, 0.772973, -0.546403, -0.744651, 0.620136, -0.341807,  --- 871.027527
0.000000, 0.000000, 0.000000, -0.376964, 0.772973, -0.546403, -0.744651, 0.620136, -0.341807,  --- 872.027710
0.000000, 0.000000, 0.000000, -0.381359, 0.776879, -0.541520, -0.724143, 0.628437, -0.338389,  --- 873.027832
0.000000, 0.000000, 0.000000, -0.381359, 0.776879, -0.541520, -0.724143, 0.628437, -0.338389,  --- 874.028015
0.000000, 0.000000, 0.000000, -0.375988, 0.770043, -0.546403, -0.724143, 0.620624, -0.341807,  --- 875.028198
0.000000, 0.000000, 0.000000, -0.375988, 0.770043, -0.546403, -0.724143, 0.620624, -0.341807,  --- 876.028564
0.000000, 0.000000, 0.000000, -0.390148, 0.780785, -0.530778, -0.741233, 0.625507, -0.341319,  --- 877.028809
0.000000, 0.000000, 0.000000, -0.390148, 0.780785, -0.530778, -0.741233, 0.625507, -0.341319,  --- 878.029175
0.000000, 0.000000, 0.000000, -0.382336, 0.772484, -0.540544, -0.736839, 0.618183, -0.330576,  --- 879.040344
0.000000, 0.000000, 0.000000, -0.382336, 0.772484, -0.540544, -0.736839, 0.618183, -0.330576,  --- 880.041016
0.000000, 0.000000, 0.000000, -0.372570, 0.767113, -0.538590, -0.725120, 0.628925, -0.333506,  --- 881.041321
0.000000, 0.000000, 0.000000, -0.372570, 0.767113, -0.538590, -0.725120, 0.628925, -0.333506,  --- 882.041565
0.000000, 0.000000, 0.000000, -0.376476, 0.769066, -0.538590, -0.728049, 0.623554, -0.343760,  --- 883.041809
0.000000, 0.000000, 0.000000, -0.376476, 0.769066, -0.538590, -0.728049, 0.623554, -0.343760,  --- 884.041992
0.000000, 0.000000, 0.000000, -0.370128, 0.770531, -0.542009, -0.730002, 0.619648, -0.346690,  --- 885.042175
0.000000, 0.000000, 0.000000, -0.370128, 0.770531, -0.542009, -0.730002, 0.619648, -0.346690,  --- 886.042480
0.000000, 0.000000, 0.000000, -0.371593, 0.768578, -0.536149, -0.730002, 0.624531, -0.345714,  --- 887.042603
0.000000, 0.000000, 0.000000, -0.371593, 0.768578, -0.536149, -0.730002, 0.624531, -0.345714,  --- 888.042847
0.000000, 0.000000, 0.000000, -0.380871, 0.762230, -0.536637, -0.723655, 0.618183, -0.336436,  --- 889.043335
0.000000, 0.000000, 0.000000, -0.380871, 0.762230, -0.536637, -0.723655, 0.618183, -0.336436,  --- 890.043640
0.000000, 0.000000, 0.000000, -0.377453, 0.771508, -0.547380, -0.729026, 0.620624, -0.329111,  --- 891.054749
0.000000, 0.000000, 0.000000, -0.377453, 0.771508, -0.547380, -0.729026, 0.620624, -0.329111,  --- 892.055908
0.000000, 0.000000, 0.000000, -0.369640, 0.768090, -0.541520, -0.725608, 0.621112, -0.333506,  --- 893.056335
0.000000, 0.000000, 0.000000, -0.369640, 0.768090, -0.541520, -0.725608, 0.621112, -0.333506,  --- 894.056641
0.000000, 0.000000, 0.000000, -0.380871, 0.771019, -0.530289, -0.726096, 0.613788, -0.333506,  --- 895.056763
0.000000, 0.000000, 0.000000, -0.380871, 0.771019, -0.530289, -0.726096, 0.613788, -0.333506,  --- 896.056946
0.000000, 0.000000, 0.000000, -0.383312, 0.778832, -0.542009, -0.730002, 0.617694, -0.342295,  --- 897.057251
0.000000, 0.000000, 0.000000, -0.383312, 0.778832, -0.542009, -0.730002, 0.617694, -0.342295,  --- 898.057495
0.000000, 0.000000, 0.000000, -0.383801, 0.774437, -0.553728, -0.731467, 0.618671, -0.340831,  --- 899.057861
0.000000, 0.000000, 0.000000, -0.383801, 0.774437, -0.553728, -0.731467, 0.618671, -0.340831,  --- 900.058105
0.000000, 0.000000, 0.000000, -0.372082, 0.783227, -0.523453, -0.736839, 0.624531, -0.336436,  --- 901.058289
0.000000, 0.000000, 0.000000, -0.372082, 0.783227, -0.523453, -0.736839, 0.624531, -0.336436,  --- 902.058533
0.000000, 0.000000, 0.000000, -0.373546, 0.766625, -0.542009, -0.735374, 0.622089, -0.341319,  --- 903.058716
0.000000, 0.000000, 0.000000, -0.373546, 0.766625, -0.542009, -0.735374, 0.622089, -0.341319,  --- 904.058838
0.000000, 0.000000, 0.000000, -0.375988, 0.772484, -0.536149, -0.730979, 0.616230, -0.341807,  --- 905.059082
0.000000, 0.000000, 0.000000, -0.375988, 0.772484, -0.536149, -0.730979, 0.616230, -0.341807,  --- 906.059265
0.000000, 0.000000, 0.000000, -0.374523, 0.771019, -0.554704, -0.734885, 0.624042, -0.324717,  --- 907.059509
0.000000, 0.000000, 0.000000, -0.374523, 0.771019, -0.554704, -0.734885, 0.624042, -0.324717,  --- 908.059753
0.000000, 0.000000, 0.000000, -0.377453, 0.768090, -0.547868, -0.732932, 0.625507, -0.326670,  --- 909.075989
0.000000, 0.000000, 0.000000, -0.377453, 0.768090, -0.547868, -0.732932, 0.625507, -0.326670,  --- 910.076416
0.000000, 0.000000, 0.000000, -0.374035, 0.772484, -0.544450, -0.743186, 0.621601, -0.347667,  --- 911.076599
0.000000, 0.000000, 0.000000, -0.374035, 0.772484, -0.544450, -0.743186, 0.621601, -0.347667,  --- 912.076843
0.000000, 0.000000, 0.000000, -0.381359, 0.776391, -0.542985, -0.738304, 0.624042, -0.331065,  --- 913.077026
0.000000, 0.000000, 0.000000, -0.381359, 0.776391, -0.542985, -0.738304, 0.624042, -0.331065,  --- 914.077393
0.000000, 0.000000, 0.000000, -0.375988, 0.771996, -0.541032, -0.734885, 0.621112, -0.352061,  --- 915.077698
0.000000, 0.000000, 0.000000, -0.375988, 0.771996, -0.541032, -0.734885, 0.621112, -0.352061,  --- 916.078003
0.000000, 0.000000, 0.000000, -0.375988, 0.769066, -0.537126, -0.730979, 0.618183, -0.334971,  --- 917.078308
0.000000, 0.000000, 0.000000, -0.375988, 0.769066, -0.537126, -0.730979, 0.618183, -0.334971,  --- 918.078552
0.000000, 0.000000, 0.000000, -0.388684, 0.774926, -0.542985, -0.736350, 0.619159, -0.331553,  --- 919.078735
0.000000, 0.000000, 0.000000, -0.388684, 0.774926, -0.542985, -0.736350, 0.619159, -0.331553,  --- 920.078918
0.000000, 0.000000, 0.000000, -0.380871, 0.764672, -0.548845, -0.739280, 0.616718, -0.326670,  --- 921.079102
0.000000, 0.000000, 0.000000, -0.380871, 0.764672, -0.548845, -0.739280, 0.616718, -0.326670,  --- 922.079285
0.000000, 0.000000, 0.000000, -0.391613, 0.780785, -0.544938, -0.739768, 0.622089, -0.335948,  --- 923.079468
0.000000, 0.000000, 0.000000, -0.391613, 0.780785, -0.544938, -0.739768, 0.622089, -0.335948,  --- 924.079590
0.000000, 0.000000, 0.000000, -0.390148, 0.771019, -0.545915, -0.734885, 0.620624, -0.337413,  --- 925.079834
0.000000, 0.000000, 0.000000, -0.390148, 0.771019, -0.545915, -0.734885, 0.620624, -0.337413,  --- 926.080200
0.000000, 0.000000, 0.000000, -0.384777, 0.773461, -0.542497, -0.732444, 0.621601, -0.335948,  --- 927.085144
0.000000, 0.000000, 0.000000, -0.384777, 0.773461, -0.542497, -0.732444, 0.621601, -0.335948,  --- 928.109192
0.000000, 0.000000, 0.000000, -0.377941, 0.769554, -0.540055, -0.733909, 0.627460, -0.346690,  --- 929.109497
0.000000, 0.000000, 0.000000, -0.377941, 0.769554, -0.540055, -0.733909, 0.627460, -0.346690,  --- 930.109863
0.000000, 0.000000, 0.000000, -0.377453, 0.776391, -0.545427, -0.733421, 0.624042, -0.351573,  --- 931.110046
0.000000, 0.000000, 0.000000, -0.377453, 0.776391, -0.545427, -0.733421, 0.624042, -0.351573,  --- 932.110535
0.000000, 0.000000, 0.000000, -0.382336, 0.779320, -0.545915, -0.735374, 0.622089, -0.348643,  --- 933.110962
0.000000, 0.000000, 0.000000, -0.382336, 0.779320, -0.545915, -0.735374, 0.622089, -0.348643,  --- 934.111328
0.000000, 0.000000, 0.000000, -0.380383, 0.771019, -0.540055, -0.738792, 0.621601, -0.340831,  --- 935.111572
0.000000, 0.000000, 0.000000, -0.380383, 0.771019, -0.540055, -0.738792, 0.621601, -0.340831,  --- 936.118225
0.000000, 0.000000, 0.000000, -0.381359, 0.764183, -0.546403, -0.736839, 0.614765, -0.335948,  --- 937.118469
0.000000, 0.000000, 0.000000, -0.381359, 0.764183, -0.546403, -0.736839, 0.614765, -0.335948,  --- 938.118652
0.000000, 0.000000, 0.000000, -0.383312, 0.773461, -0.539079, -0.731956, 0.624042, -0.339366,  --- 939.118835
0.000000, 0.000000, 0.000000, -0.383312, 0.773461, -0.539079, -0.731956, 0.624042, -0.339366,  --- 940.119141
0.000000, 0.000000, 0.000000, -0.375500, 0.769554, -0.543473, -0.727561, 0.620624, -0.333994,  --- 941.119324
0.000000, 0.000000, 0.000000, -0.375500, 0.769554, -0.543473, -0.727561, 0.620624, -0.333994,  --- 942.119568
0.000000, 0.000000, 0.000000, -0.371105, 0.771019, -0.549333, -0.728538, 0.627460, -0.342295,  --- 943.119812
0.000000, 0.000000, 0.000000, -0.371105, 0.771019, -0.549333, -0.728538, 0.627460, -0.342295,  --- 944.120056
0.000000, 0.000000, 0.000000, -0.371105, 0.771508, -0.538590, -0.731467, 0.632343, -0.333994,  --- 945.137939
0.000000, 0.000000, 0.000000, -0.371105, 0.771508, -0.538590, -0.731467, 0.632343, -0.333994,  --- 946.141968
0.000000, 0.000000, 0.000000, -0.373058, 0.772973, -0.540055, -0.731467, 0.631855, -0.347178,  --- 947.158813
0.000000, 0.000000, 0.000000, -0.373058, 0.772973, -0.540055, -0.731467, 0.631855, -0.347178,  --- 948.173767
0.000000, 0.000000, 0.000000, -0.384289, 0.774437, -0.545427, -0.729026, 0.616718, -0.333994,  --- 949.174133
0.000000, 0.000000, 0.000000, -0.384289, 0.774437, -0.545427, -0.729026, 0.616718, -0.333994,  --- 950.174438
0.000000, 0.000000, 0.000000, -0.377941, 0.771019, -0.536149, -0.730491, 0.617206, -0.332530,  --- 951.174622
0.000000, 0.000000, 0.000000, -0.377941, 0.771019, -0.536149, -0.730491, 0.617206, -0.332530,  --- 952.196045
0.000000, 0.000000, 0.000000, -0.366222, 0.762718, -0.542985, -0.734397, 0.627949, -0.336436,  --- 953.196472
0.000000, 0.000000, 0.000000, -0.366222, 0.762718, -0.542985, -0.734397, 0.627949, -0.336436,  --- 954.200806
0.000000, 0.000000, 0.000000, -0.373058, 0.768578, -0.538590, -0.737327, 0.626484, -0.347667,  --- 955.201172
0.000000, 0.000000, 0.000000, -0.373058, 0.768578, -0.538590, -0.737327, 0.626484, -0.347667,  --- 956.201355
0.000000, 0.000000, 0.000000, -0.375011, 0.773461, -0.538590, -0.737815, 0.628437, -0.324717,  --- 957.201538
0.000000, 0.000000, 0.000000, -0.375011, 0.773461, -0.538590, -0.737815, 0.628437, -0.324717,  --- 958.201782
0.000000, 0.000000, 0.000000, -0.378429, 0.770531, -0.541520, -0.728049, 0.622577, -0.336924,  --- 959.201965
0.000000, 0.000000, 0.000000, -0.378429, 0.770531, -0.541520, -0.728049, 0.622577, -0.336924,  --- 960.202148
0.000000, 0.000000, 0.000000, -0.375988, 0.776879, -0.545427, -0.730979, 0.617694, -0.333018,  --- 961.202515
0.000000, 0.000000, 0.000000, -0.375988, 0.776879, -0.545427, -0.730979, 0.617694, -0.333018,  --- 962.202820
0.000000, 0.000000, 0.000000, -0.389660, 0.771508, -0.542009, -0.737815, 0.617206, -0.329600,  --- 963.203003
0.000000, 0.000000, 0.000000, -0.389660, 0.771508, -0.542009, -0.737815, 0.617206, -0.329600,  --- 964.203369
0.000000, 0.000000, 0.000000, -0.362316, 0.770043, -0.531266, -0.722190, 0.621601, -0.329111,  --- 965.205139
0.000000, 0.000000, 0.000000, -0.362316, 0.770043, -0.531266, -0.722190, 0.621601, -0.329111,  --- 966.205505
0.000000, 0.000000, 0.000000, -0.375500, 0.776879, -0.537126, -0.730002, 0.621112, -0.339854,  --- 967.205750
0.000000, 0.000000, 0.000000, -0.375500, 0.776879, -0.537126, -0.730002, 0.621112, -0.339854,  --- 968.205933
0.000000, 0.000000, 0.000000, -0.371105, 0.771996, -0.544938, -0.725608, 0.621601, -0.337901,  --- 969.206177
0.000000, 0.000000, 0.000000, -0.371105, 0.771996, -0.544938, -0.725608, 0.621601, -0.337901,  --- 970.215027
0.000000, 0.000000, 0.000000, -0.374035, 0.768578, -0.536637, -0.730491, 0.626484, -0.337413,  --- 971.215332
0.000000, 0.000000, 0.000000, -0.374035, 0.768578, -0.536637, -0.730491, 0.626484, -0.337413,  --- 972.223022
0.000000, 0.000000, 0.000000, -0.383312, 0.779809, -0.540055, -0.734885, 0.623066, -0.342295,  --- 973.223389
0.000000, 0.000000, 0.000000, -0.383312, 0.779809, -0.540055, -0.734885, 0.623066, -0.342295,  --- 974.239319
0.000000, 0.000000, 0.000000, -0.373546, 0.771019, -0.541032, -0.726584, 0.620624, -0.334483,  --- 975.239746
0.000000, 0.000000, 0.000000, -0.373546, 0.771019, -0.541032, -0.726584, 0.620624, -0.334483,  --- 976.239990
0.000000, 0.000000, 0.000000, -0.376964, 0.770043, -0.534196, -0.734397, 0.621112, -0.341319,  --- 977.240356
0.000000, 0.000000, 0.000000, -0.376964, 0.770043, -0.534196, -0.734397, 0.621112, -0.341319,  --- 978.253967
0.000000, 0.000000, 0.000000, -0.376476, 0.772973, -0.535172, -0.736350, 0.617206, -0.352061,  --- 979.254395
0.000000, 0.000000, 0.000000, -0.376476, 0.772973, -0.535172, -0.736350, 0.617206, -0.352061,  --- 980.254639
0.000000, 0.000000, 0.000000, -0.379894, 0.767113, -0.541032, -0.739280, 0.624042, -0.336436,  --- 981.254883
0.000000, 0.000000, 0.000000, -0.379894, 0.767113, -0.541032, -0.739280, 0.624042, -0.336436,  --- 982.255127
0.000000, 0.000000, 0.000000, -0.381847, 0.773949, -0.535661, -0.725608, 0.622089, -0.345714,  --- 983.268860
0.000000, 0.000000, 0.000000, -0.381847, 0.773949, -0.535661, -0.725608, 0.622089, -0.345714,  --- 984.269226
0.000000, 0.000000, 0.000000, -0.368175, 0.779320, -0.558122, -0.744651, 0.621112, -0.330576,  --- 985.269592
0.000000, 0.000000, 0.000000, -0.368175, 0.779320, -0.558122, -0.744651, 0.621112, -0.330576,  --- 986.269775
0.000000, 0.000000, 0.000000, -0.370617, 0.775414, -0.544938, -0.734885, 0.624531, -0.345225,  --- 987.276794
0.000000, 0.000000, 0.000000, -0.370617, 0.775414, -0.544938, -0.734885, 0.624531, -0.345225,  --- 988.277100
0.000000, 0.000000, 0.000000, -0.375011, 0.764183, -0.535661, -0.730979, 0.619159, -0.330088,  --- 989.277283
0.000000, 0.000000, 0.000000, -0.375011, 0.764183, -0.535661, -0.730979, 0.619159, -0.330088,  --- 990.293457
0.000000, 0.000000, 0.000000, -0.380383, 0.763207, -0.546403, -0.737327, 0.621601, -0.330576,  --- 991.293701
0.000000, 0.000000, 0.000000, -0.380383, 0.763207, -0.546403, -0.737327, 0.621601, -0.330576,  --- 992.293884
0.000000, 0.000000, 0.000000, -0.382824, 0.769554, -0.558611, -0.723655, 0.614765, -0.339854,  --- 993.294128
0.000000, 0.000000, 0.000000, -0.382824, 0.769554, -0.558611, -0.723655, 0.614765, -0.339854,  --- 994.295471
0.000000, 0.000000, 0.000000, -0.375500, 0.759300, -0.549333, -0.725120, 0.621601, -0.334971,  --- 995.295959
0.000000, 0.000000, 0.000000, -0.375500, 0.759300, -0.549333, -0.725120, 0.621601, -0.334971,  --- 996.296204
0.000000, 0.000000, 0.000000, -0.381359, 0.777367, -0.547868, -0.727561, 0.625507, -0.347178,  --- 997.296448
0.000000, 0.000000, 0.000000, -0.381359, 0.777367, -0.547868, -0.727561, 0.625507, -0.347178,  --- 998.311523
0.000000, 0.000000, 0.000000, -0.379406, 0.770531, -0.543473, -0.726096, 0.628925, -0.336436,  --- 999.311951
0.000000, 0.000000, 0.000000, -0.379406, 0.770531, -0.543473, -0.726096, 0.628925, -0.336436,  --- 1000.312500
0.000000, 0.000000, 0.000000, -0.381847, 0.768578, -0.554704, -0.722190, 0.623554, -0.339366,  --- 1001.312805
0.000000, 0.000000, 0.000000, -0.381847, 0.768578, -0.554704, -0.722190, 0.623554, -0.339366,  --- 1002.313171
0.000000, 0.000000, 0.000000, -0.377941, 0.763207, -0.553239, -0.734397, 0.628925, -0.327158,  --- 1003.313416
0.000000, 0.000000, 0.000000, -0.377941, 0.763207, -0.553239, -0.734397, 0.628925, -0.327158,  --- 1004.313599
0.000000, 0.000000, 0.000000, -0.370128, 0.770531, -0.534684, -0.733421, 0.618671, -0.332530,  --- 1005.313843
0.000000, 0.000000, 0.000000, -0.370128, 0.770531, -0.534684, -0.733421, 0.618671, -0.332530,  --- 1006.314026
0.000000, 0.000000, 0.000000, -0.377453, 0.768090, -0.538590, -0.735374, 0.635761, -0.357921,  --- 1007.314209
0.000000, 0.000000, 0.000000, -0.377453, 0.768090, -0.538590, -0.735374, 0.635761, -0.357921,  --- 1008.314392
0.000000, 0.000000, 0.000000, -0.373058, 0.766625, -0.542009, -0.729514, 0.625507, -0.336924,  --- 1009.314636
0.000000, 0.000000, 0.000000, -0.373058, 0.766625, -0.542009, -0.729514, 0.625507, -0.336924,  --- 1010.322998
0.000000, 0.000000, 0.000000, -0.372570, 0.778344, -0.540544, -0.729514, 0.627949, -0.349132,  --- 1011.323364
0.000000, 0.000000, 0.000000, -0.372570, 0.778344, -0.540544, -0.729514, 0.627949, -0.349132,  --- 1012.323608
0.000000, 0.000000, 0.000000, -0.382824, 0.762230, -0.546403, -0.737815, 0.621112, -0.334483,  --- 1013.323975
0.000000, 0.000000, 0.000000, -0.382824, 0.762230, -0.546403, -0.737815, 0.621112, -0.334483,  --- 1014.324219
0.000000, 0.000000, 0.000000, -0.379894, 0.770531, -0.547380, -0.729026, 0.621601, -0.343760,  --- 1015.324463
0.000000, 0.000000, 0.000000, -0.379894, 0.770531, -0.547380, -0.729026, 0.621601, -0.343760,  --- 1016.324768
0.000000, 0.000000, 0.000000, -0.373058, 0.769066, -0.540544, -0.721701, 0.624531, -0.340342,  --- 1017.328857
0.000000, 0.000000, 0.000000, -0.373058, 0.769066, -0.540544, -0.721701, 0.624531, -0.340342,  --- 1018.329102
0.000000, 0.000000, 0.000000, -0.380383, 0.771996, -0.541032, -0.732932, 0.625019, -0.331553,  --- 1019.329285
0.000000, 0.000000, 0.000000, -0.380383, 0.771996, -0.541032, -0.732932, 0.625019, -0.331553,  --- 1020.329529
0.000000, 0.000000, 0.000000, -0.381847, 0.771019, -0.542009, -0.732444, 0.615741, -0.337901,  --- 1021.329712
0.000000, 0.000000, 0.000000, -0.381847, 0.771019, -0.542009, -0.732444, 0.615741, -0.337901,  --- 1022.330017
0.000000, 0.000000, 0.000000, -0.370128, 0.780785, -0.548356, -0.730979, 0.631367, -0.329600,  --- 1023.330383
0.000000, 0.000000, 0.000000, -0.370128, 0.780785, -0.548356, -0.730979, 0.631367, -0.329600,  --- 1024.330566
0.000000, 0.000000, 0.000000, -0.372082, 0.772484, -0.543473, -0.727073, 0.622089, -0.332041,  --- 1025.330811
0.000000, 0.000000, 0.000000, -0.372082, 0.772484, -0.543473, -0.727073, 0.622089, -0.332041,  --- 1026.333862
0.000000, 0.000000, 0.000000, -0.383312, 0.766136, -0.539079, -0.728049, 0.629902, -0.342784,  --- 1027.340210
0.000000, 0.000000, 0.000000, -0.383312, 0.766136, -0.539079, -0.728049, 0.629902, -0.342784,  --- 1028.360352
0.000000, 0.000000, 0.000000, -0.377941, 0.770043, -0.542497, -0.728538, 0.624531, -0.344249,  --- 1029.360962
0.000000, 0.000000, 0.000000, -0.377941, 0.770043, -0.542497, -0.728538, 0.624531, -0.344249,  --- 1030.361206
0.000000, 0.000000, 0.000000, -0.375011, 0.771508, -0.521500, -0.733909, 0.623554, -0.335459,  --- 1031.361450
0.000000, 0.000000, 0.000000, -0.375011, 0.771508, -0.521500, -0.733909, 0.623554, -0.335459,  --- 1032.361694
0.000000, 0.000000, 0.000000, -0.375011, 0.774926, -0.542009, -0.733909, 0.627460, -0.348643,  --- 1033.362061
0.000000, 0.000000, 0.000000, -0.375011, 0.774926, -0.542009, -0.733909, 0.627460, -0.348643,  --- 1034.362427
0.000000, 0.000000, 0.000000, -0.380871, 0.759300, -0.565447, -0.730491, 0.627460, -0.346202,  --- 1035.362671
0.000000, 0.000000, 0.000000, -0.380871, 0.759300, -0.565447, -0.730491, 0.627460, -0.346202,  --- 1036.362915
0.000000, 0.000000, 0.000000, -0.377941, 0.766625, -0.538590, -0.741722, 0.623554, -0.329600,  --- 1037.363159
0.000000, 0.000000, 0.000000, -0.377941, 0.766625, -0.538590, -0.741722, 0.623554, -0.329600,  --- 1038.363403
0.000000, 0.000000, 0.000000, -0.377941, 0.771019, -0.542009, -0.731467, 0.627949, -0.339854,  --- 1039.363647
0.000000, 0.000000, 0.000000, -0.377941, 0.771019, -0.542009, -0.731467, 0.627949, -0.339854,  --- 1040.363892
0.000000, 0.000000, 0.000000, -0.389172, 0.776391, -0.542985, -0.733421, 0.617206, -0.331553,  --- 1041.364014
0.000000, 0.000000, 0.000000, -0.389172, 0.776391, -0.542985, -0.733421, 0.617206, -0.331553,  --- 1042.364258
0.000000, 0.000000, 0.000000, -0.386730, 0.780785, -0.531266, -0.745140, 0.616718, -0.337413,  --- 1043.364624
0.000000, 0.000000, 0.000000, -0.386730, 0.780785, -0.531266, -0.745140, 0.616718, -0.337413,  --- 1044.371460
0.000000, 0.000000, 0.000000, -0.371105, 0.770043, -0.542009, -0.726096, 0.621112, -0.332041,  --- 1045.371948
0.000000, 0.000000, 0.000000, -0.371105, 0.770043, -0.542009, -0.726096, 0.621112, -0.332041,  --- 1046.372314
0.000000, 0.000000, 0.000000, -0.377453, 0.778344, -0.549333, -0.733909, 0.620136, -0.332041,  --- 1047.372559
0.000000, 0.000000, 0.000000, -0.377453, 0.778344, -0.549333, -0.733909, 0.620136, -0.332041,  --- 1048.372681
0.000000, 0.000000, 0.000000, -0.369640, 0.767601, -0.531266, -0.731956, 0.621601, -0.334483,  --- 1049.373047
0.000000, 0.000000, 0.000000, -0.369640, 0.767601, -0.531266, -0.731956, 0.621601, -0.334483,  --- 1050.378174
0.000000, 0.000000, 0.000000, -0.373058, 0.775414, -0.541032, -0.733421, 0.616230, -0.338389,  --- 1051.378540
0.000000, 0.000000, 0.000000, -0.373058, 0.775414, -0.541032, -0.733421, 0.616230, -0.338389,  --- 1052.382935
0.000000, 0.000000, 0.000000, -0.381847, 0.763695, -0.546403, -0.739280, 0.624531, -0.335459,  --- 1053.383179
0.000000, 0.000000, 0.000000, -0.381847, 0.763695, -0.546403, -0.739280, 0.624531, -0.335459,  --- 1054.383301
0.000000, 0.000000, 0.000000, -0.376476, 0.774926, -0.544938, -0.734397, 0.630878, -0.334483,  --- 1055.384888
0.000000, 0.000000, 0.000000, -0.376476, 0.774926, -0.544938, -0.734397, 0.630878, -0.334483,  --- 1056.390381
0.000000, 0.000000, 0.000000, -0.379406, 0.771019, -0.548356, -0.737815, 0.625019, -0.345714,  --- 1057.400024
0.000000, 0.000000, 0.000000, -0.379406, 0.771019, -0.548356, -0.737815, 0.625019, -0.345714,  --- 1058.400391
0.000000, 0.000000, 0.000000, -0.389172, 0.772484, -0.545915, -0.731467, 0.624042, -0.331553,  --- 1059.403687
0.000000, 0.000000, 0.000000, -0.389172, 0.772484, -0.545915, -0.731467, 0.624042, -0.331553,  --- 1060.406006
0.000000, 0.000000, 0.000000, -0.374035, 0.773949, -0.540544, -0.734885, 0.623554, -0.343760,  --- 1061.406250
0.000000, 0.000000, 0.000000, -0.374035, 0.773949, -0.540544, -0.734885, 0.623554, -0.343760,  --- 1062.413818
0.000000, 0.000000, 0.000000, -0.376964, 0.778344, -0.536149, -0.734885, 0.626484, -0.335459,  --- 1063.414062
0.000000, 0.000000, 0.000000, -0.376964, 0.778344, -0.536149, -0.734885, 0.626484, -0.335459,  --- 1064.414307
0.000000, 0.000000, 0.000000, -0.373546, 0.775414, -0.537126, -0.729026, 0.620624, -0.338389,  --- 1065.414673
0.000000, 0.000000, 0.000000, -0.373546, 0.775414, -0.537126, -0.729026, 0.620624, -0.338389,  --- 1066.415161
0.000000, 0.000000, 0.000000, -0.375988, 0.766136, -0.540055, -0.738792, 0.623554, -0.323740,  --- 1067.431152
0.000000, 0.000000, 0.000000, -0.375988, 0.766136, -0.540055, -0.738792, 0.623554, -0.323740,  --- 1068.431396
0.000000, 0.000000, 0.000000, -0.380383, 0.772973, -0.545427, -0.731467, 0.628437, -0.351085,  --- 1069.431641
0.000000, 0.000000, 0.000000, -0.380383, 0.772973, -0.545427, -0.731467, 0.628437, -0.351085,  --- 1070.431885
0.000000, 0.000000, 0.000000, -0.377941, 0.773461, -0.542497, -0.725608, 0.616718, -0.344737,  --- 1071.432129
0.000000, 0.000000, 0.000000, -0.377941, 0.773461, -0.542497, -0.725608, 0.616718, -0.344737,  --- 1072.439331
0.000000, 0.000000, 0.000000, -0.372082, 0.766136, -0.534684, -0.719748, 0.620136, -0.333994,  --- 1073.439697
0.000000, 0.000000, 0.000000, -0.372082, 0.766136, -0.534684, -0.719748, 0.620136, -0.333994,  --- 1074.439941
0.000000, 0.000000, 0.000000, -0.370128, 0.771019, -0.554216, -0.739280, 0.621601, -0.324717,  --- 1075.440186
0.000000, 0.000000, 0.000000, -0.370128, 0.771019, -0.554216, -0.739280, 0.621601, -0.324717,  --- 1076.442993
0.000000, 0.000000, 0.000000, -0.373546, 0.772484, -0.547868, -0.729514, 0.621112, -0.326670,  --- 1077.443481
0.000000, 0.000000, 0.000000, -0.373546, 0.772484, -0.547868, -0.729514, 0.621112, -0.326670,  --- 1078.443726
0.000000, 0.000000, 0.000000, -0.375011, 0.771996, -0.542497, -0.727073, 0.624042, -0.333018,  --- 1079.454346
0.000000, 0.000000, 0.000000, -0.375011, 0.771996, -0.542497, -0.727073, 0.624042, -0.333018,  --- 1080.454712
0.000000, 0.000000, 0.000000, -0.375011, 0.774437, -0.556657, -0.730002, 0.618671, -0.341807,  --- 1081.454956
0.000000, 0.000000, 0.000000, -0.375011, 0.774437, -0.556657, -0.730002, 0.618671, -0.341807,  --- 1082.455200
0.000000, 0.000000, 0.000000, -0.383801, 0.764183, -0.550310, -0.735374, 0.624531, -0.334971,  --- 1083.455566
0.000000, 0.000000, 0.000000, -0.383801, 0.764183, -0.550310, -0.735374, 0.624531, -0.334971,  --- 1084.455811
0.000000, 0.000000, 0.000000, -0.377941, 0.771996, -0.529313, -0.723655, 0.621112, -0.337413,  --- 1085.456177
0.000000, 0.000000, 0.000000, -0.377941, 0.771996, -0.529313, -0.723655, 0.621112, -0.337413,  --- 1086.456421
0.000000, 0.000000, 0.000000, -0.377941, 0.774437, -0.533219, -0.730979, 0.626484, -0.337901,  --- 1087.456665
0.000000, 0.000000, 0.000000, -0.377941, 0.774437, -0.533219, -0.730979, 0.626484, -0.337901,  --- 1088.460205
0.000000, 0.000000, 0.000000, -0.377453, 0.763207, -0.544450, -0.726584, 0.624042, -0.339854,  --- 1089.460693
0.000000, 0.000000, 0.000000, -0.377453, 0.763207, -0.544450, -0.726584, 0.624042, -0.339854,  --- 1090.460938
0.000000, 0.000000, 0.000000, -0.381847, 0.772484, -0.539079, -0.730491, 0.621601, -0.333018,  --- 1091.464966
